cmd_vel_x,cmd_vel_y,cmd_vel_z,cmd_ang_x,cmd_ang_y,cmd_ang_z,orient_x,orient_y,orient_z,orient_w,imu_ang_x,imu_ang_y,imu_ang_z,imu_accel_x,imu_accel_y,imu_accel_z,quaternion_norm,roll,pitch,yaw,imu_ang_magnitude,imu_accel_magnitude,delta_roll,delta_pitch,delta_yaw
0,0,0,0,0,0,4.94E-05,0.002865781,2.83E-07,0.999995892,4.26E-05,0.000467605,-4.97E-05,-0.068846112,0.020620978,9.100748802,1,-0.417249628,0.238363073,-0.991207352,-0.624318863,-1.505656365,,,
0,0,0,0,0,0,4.94E-05,0.002865728,2.83E-07,0.999995893,0.000165411,0.001059176,0.000261863,-0.051377452,-0.003390679,10.36925651,1,-0.417249567,0.238265987,-0.991207352,-0.620859997,1.197952405,3.43E-09,-6.09E-06,4.92E-09
0,0,0,0,0,0,4.94E-05,0.002866066,2.84E-07,0.999995892,0.000305937,0.000558452,0.000213806,-0.069788855,0.022695081,9.245129756,1,-0.417249679,0.238883771,-0.991207351,-0.623225719,-1.197879071,-6.25E-09,3.88E-05,1.12E-08
0,0,0,0,0,0,4.94E-05,0.002865869,2.84E-07,0.999995892,-6.33E-05,0.000547015,-0.000247335,-0.04011545,-0.037500375,10.18180467,1,-0.417249674,0.238522647,-0.991207351,-0.623598435,0.798424675,2.42E-10,-2.27E-05,4.74E-09
0,0,0,0,0,0,4.94E-05,0.002866198,2.84E-07,0.999995891,0.000207365,0.000959663,2.45E-05,-0.056562819,0.006123658,9.848987926,1,-0.417249712,0.239123841,-0.991207351,-0.621525163,0.089029721,-2.13E-09,3.77E-05,9.42E-09
0,0,0,0,0,0,4.94E-05,0.002866141,2.84E-07,0.999995891,0.000548249,0.00086786,-9.55E-05,-0.084442816,-0.011459481,9.510067924,1,-0.417249816,0.239019579,-0.991207351,-0.621257598,-0.632945955,-5.78E-09,-6.54E-06,8.46E-09
0,0,0,0,0,0,4.94E-05,0.002866251,2.84E-07,0.999995891,0.000307675,0.000843639,7.65E-05,-0.06441434,-0.010421736,10.27306169,1,-0.417249794,0.239221005,-0.99120735,-0.621968179,0.993073518,1.23E-09,1.26E-05,7.21E-09
0,0,0,0,0,0,4.94E-05,0.002866541,2.84E-07,0.99999589,0.000172212,0.000494983,0.000122774,-0.085275083,-0.003708699,9.015750393,1,-0.417249953,0.239750749,-0.99120735,-0.623956662,-1.686581935,-8.89E-09,3.32E-05,1.21E-08
0,0,0,0,0,0,4.94E-05,0.002866435,2.84E-07,0.999995891,-1.01E-05,0.000658308,0.000135058,-0.066998077,-0.013619495,10.42730933,1,-0.417249942,0.239557422,-0.99120735,-0.62322355,1.321902596,6.27E-10,-1.21E-05,4.90E-09
0,0,0,0,0,0,4.94E-05,0.002866859,2.84E-07,0.999995889,-0.000116956,0.000653276,4.82E-05,-0.08102473,-0.002667118,9.544983965,1,-0.417250054,0.240331576,-0.99120735,-0.623260172,-0.558599191,-6.27E-09,4.86E-05,1.14E-08
0,0,0,0,0,0,4.94E-05,0.002866751,2.84E-07,0.99999589,0.000100112,0.000658256,-0.000233217,-0.060892119,0.029530698,9.892769517,1,-0.417250135,0.240134363,-0.991207349,-0.623040609,0.18249736,-4.53E-09,-1.24E-05,6.78E-09
0,0,0,0,0,0,4.94E-05,0.002867025,2.84E-07,0.999995889,-0.000325076,0.001016679,0.000295747,-0.048283264,-0.015117783,10.23064286,1,-0.417250169,0.240635353,-0.991207349,-0.620837723,0.9024788,-1.89E-09,3.14E-05,9.69E-09
0,0,0,0,0,0,4.94E-05,0.002867197,2.84E-07,0.999995888,1.82E-05,0.000431166,0.000147968,-0.05676424,-0.003440803,9.136831631,1,-0.417250346,0.240948693,-0.991207349,-0.624406212,-1.428970117,-9.85E-09,1.97E-05,1.16E-08
0,0,0,0,0,0,4.94E-05,0.002867253,2.84E-07,0.999995888,0.000147738,0.000852468,0.000337526,-0.033020325,0.031494512,10.33425418,1,-0.41725035,0.241051305,-0.991207349,-0.621817885,1.123283969,-2.14E-10,6.44E-06,6.54E-09
0,0,0,0,0,0,4.94E-05,0.0028677,2.84E-07,0.999995887,-9.07E-05,0.000584112,0.00017231,-0.051826172,0.017793015,9.275170413,1,-0.417250526,0.241868623,-0.991207348,-0.623532397,-1.134120473,-9.85E-09,5.13E-05,1.28E-08
0,0,0,0,0,0,4.94E-05,0.002867612,2.84E-07,0.999995887,0.000198677,0.00046247,-0.00020864,-0.04013946,-0.013488923,10.18301325,1,-0.417250586,0.241706931,-0.991207348,-0.623920531,0.800872901,-3.33E-09,-1.01E-05,6.38E-09
0,0,0,0,0,0,4.94E-05,0.00286805,2.85E-07,0.999995886,0.000204649,0.000840689,-0.000347326,-0.05761665,-0.008960826,9.843572184,1,-0.417250687,0.242507388,-0.991207348,-0.621797802,0.077503421,-5.66E-09,5.02E-05,1.10E-08
0,0,0,0,0,0,4.94E-05,0.002868027,2.85E-07,0.999995886,0.00056492,0.000397635,-6.16E-05,-0.059963511,0.02382992,9.238104911,1,-0.417250846,0.242465296,-0.991207347,-0.623105868,-1.212993688,-8.86E-09,-2.64E-06,1.12E-08
0,0,0,0,0,0,4.94E-05,0.002867882,2.85E-07,0.999995886,-4.40E-05,0.00051989,-8.46E-05,-0.054294163,-0.010696116,10.41611311,1,-0.417250721,0.242200271,-0.991207347,-0.624009882,1.297872405,6.98E-09,-1.66E-05,5.14E-09
0,0,0,0,0,0,4.94E-05,0.002868342,2.85E-07,0.999995885,0.000192683,0.000877402,-1.97E-05,-0.077703651,0.004729432,9.82944113,1,-0.417250773,0.243040491,-0.991207347,-0.621983094,0.047670746,-2.89E-09,5.27E-05,1.10E-08
0,0,0,0,0,0,4.94E-05,0.002868344,2.85E-07,0.999995885,6.09E-05,0.000502816,8.75E-05,-0.064542235,-0.004797479,9.271950842,1,-0.417250934,0.243044165,-0.991207347,-0.624089668,-1.14084682,-9.00E-09,2.30E-07,1.10E-08
0,0,0,0,0,0,4.94E-05,0.002868224,2.85E-07,0.999995885,0.00037734,0.000384571,7.02E-05,-0.054489187,0.011395957,10.40287774,1,-0.417250828,0.242825658,-0.991207347,-0.623928988,1.26966415,5.90E-09,-1.37E-05,4.89E-09
0,0,0,0,0,0,4.94E-05,0.002868639,2.85E-07,0.999995884,1.61E-05,0.000543173,-0.000292772,-0.059711923,0.014341609,9.486161776,1,-0.417250894,0.243583247,-0.991207346,-0.62352394,-0.684294242,-3.70E-09,4.75E-05,1.11E-08
0,0,0,0,0,0,4.94E-05,0.002868376,2.85E-07,0.999995885,-0.000191583,0.000283933,0.000107472,-0.060039623,-0.024392323,9.643621775,1,-0.417250924,0.243103928,-0.991207346,-0.624938844,-0.348613293,-1.64E-09,-3.01E-05,6.84E-09
0,0,0,0,0,0,4.94E-05,0.00286828,2.85E-07,0.999995885,0.000181657,0.000574951,0.000151639,-0.062695139,0.009170746,10.3139382,1,-0.417250748,0.242927673,-0.991207346,-0.623499403,1.080178702,9.83E-09,-1.11E-05,5.26E-09
0,0,0,0,0,0,4.94E-05,0.002868719,2.85E-07,0.999995884,0.000192023,0.000505049,0.000185006,-0.027968996,0.002042879,9.460431347,1,-0.417250812,0.243729864,-0.991207346,-0.623776737,-0.739476125,-3.57E-09,5.03E-05,1.06E-08
0,0,0,0,0,0,4.94E-05,0.002868482,2.85E-07,0.999995885,0.000152978,0.000635258,-0.000322415,-0.079243804,-0.011531218,9.601794645,1,-0.417250861,0.243297896,-0.991207345,-0.622913818,-0.437524042,-2.74E-09,-2.71E-05,6.39E-09
0,0,0,0,0,0,4.94E-05,0.002868411,2.85E-07,0.999995885,0.000257494,0.000947665,-8.03E-05,-0.058266818,-0.017305893,10.3212899,1,-0.417250709,0.243166936,-0.991207345,-0.621507719,1.095816159,8.47E-09,-8.21E-06,4.92E-09
0,0,0,0,0,0,4.94E-05,0.002868734,2.85E-07,0.999995884,0.000401495,0.000493438,9.98E-05,-0.069125709,0.016523993,9.244450496,1,-0.417250771,0.243756946,-0.991207345,-0.62337787,-1.199365453,-3.46E-09,3.70E-05,1.02E-08
0,0,0,0,0,0,4.94E-05,0.002868302,2.85E-07,0.999995885,-4.19E-05,0.001028385,0.000286076,-0.049482455,-0.003102327,9.946626898,1,-0.417250678,0.242968927,-0.991207345,-0.621053271,0.297069315,5.16E-09,-4.94E-05,2.92E-09
0,0,0,0,0,0,4.94E-05,0.002868255,2.85E-07,0.999995885,0.000206752,0.00065201,-0.000137095,-0.063749101,0.006112516,10.26075359,1,-0.417250477,0.242882419,-0.991207345,-0.623083773,0.966821942,1.12E-08,-5.43E-06,5.65E-09
0,0,0,0,0,0,4.94E-05,0.002868603,2.86E-07,0.999995884,-4.75E-05,0.000848518,0.000309926,-0.044480223,0.003329872,9.210449485,1,-0.417250544,0.24351719,-0.991207344,-0.621949837,-1.272193887,-3.76E-09,3.98E-05,1.02E-08
0,0,0,0,0,0,4.94E-05,0.002868197,2.86E-07,0.999995885,0.00025615,0.000294189,0.000455067,-0.068715845,0.01022099,9.961486637,1,-0.417250475,0.242776878,-0.991207344,-0.623621952,0.328997199,3.89E-09,-4.64E-05,3.01E-09
0,0,0,0,0,0,4.94E-05,0.002868174,2.86E-07,0.999995886,0.000298308,0.000708742,-0.000186808,-0.064130121,0.000195383,10.22051987,1,-0.417250299,0.242735103,-0.991207344,-0.622570355,0.881062919,9.80E-09,-2.62E-06,5.87E-09
0,0,0,0,0,0,4.94E-05,0.002868334,2.86E-07,0.999995885,-0.000171393,0.000442102,-3.96E-05,-0.056986554,-0.006731781,8.988168969,1,-0.417250339,0.243026267,-0.991207344,-0.624298822,-1.745845082,-2.24E-09,1.83E-05,9.84E-09
0,0,0,0,0,0,4.94E-05,0.002867805,2.86E-07,0.999995887,9.66E-05,0.000212891,-0.000119952,-0.053422571,-0.005145403,10.27307981,1,-0.417250135,0.242060855,-0.991207344,-0.625465955,0.992969238,1.14E-08,-6.06E-05,1.45E-09
0,0,0,0,0,0,4.94E-05,0.002867808,2.86E-07,0.999995887,0.000360105,0.000567691,0.000118234,-0.074114061,0.004735348,10.17752709,1,-0.417249926,0.242065058,-0.991207344,-0.623166059,0.789568538,1.16E-08,2.64E-07,6.06E-09
0,0,0,0,0,0,4.94E-05,0.002867992,2.86E-07,0.999995886,0.000104223,0.000503168,-0.000186895,-0.049929166,0.022989365,8.971194843,1,-0.417249979,0.242401661,-0.991207343,-0.623910051,-1.782058493,-2.93E-09,2.11E-05,1.01E-08
0,0,0,0,0,0,4.94E-05,0.00286749,2.86E-07,0.999995888,1.82E-05,0.000582363,0.000397493,-0.040281656,0.000110523,10.27278681,1,-0.4172498,0.241484029,-0.991207343,-0.623041525,0.992214202,9.99E-09,-5.76E-05,1.75E-09
0,0,0,0,0,0,4.94E-05,0.002867516,2.86E-07,0.999995887,-8.21E-05,0.00066521,8.44E-05,-0.040212629,-0.001707075,10.19605464,1,-0.417249618,0.241532646,-0.991207343,-0.623204623,0.828653495,1.01E-08,3.05E-06,6.38E-09
0,0,0,0,0,0,4.94E-05,0.002867442,2.86E-07,0.999995888,-0.000135316,0.001022549,0.000406953,-0.041671304,-0.017925578,9.114236101,1,-0.41724961,0.241397362,-0.991207343,-0.620830924,-1.477271177,4.39E-10,-8.49E-06,8.26E-09
0,0,0,0,0,0,4.94E-05,0.002867254,2.86E-07,0.999995888,0.000492546,0.000649695,0.000178296,-0.046388089,-0.005453604,10.33605496,1,-0.417249443,0.241053183,-0.991207343,-0.622333501,1.127132695,9.35E-09,-2.16E-05,3.27E-09
0,0,0,0,0,0,4.94E-05,0.002867457,2.86E-07,0.999995888,0.000223177,0.000279936,-3.52E-05,-0.040740795,-0.007861466,9.277328702,1,-0.417249453,0.241423804,-0.991207343,-0.624934746,-1.129667113,-5.90E-10,2.32E-05,9.54E-09
0,0,0,0,0,0,4.94E-05,0.002866903,2.86E-07,0.999995889,0.000461235,0.000533552,0.00014262,-0.045866056,-0.007710989,9.971469006,1,-0.417249294,0.240413204,-0.991207343,-0.622963562,0.349990374,8.88E-09,-6.34E-05,2.41E-09
0,0,0,0,0,0,4.94E-05,0.002866734,2.86E-07,0.99999589,0.00015537,0.000344414,-0.000241625,-0.053614238,-0.010633757,10.23525975,1,-0.417249021,0.240103775,-0.991207342,-0.624448524,0.912364559,1.52E-08,-1.94E-05,5.21E-09
0,0,0,0,0,0,4.94E-05,0.00286696,2.86E-07,0.999995889,-1.64E-06,0.0004694,-1.02E-05,-0.054872195,0.011422248,9.245696865,1,-0.417249016,0.240516071,-0.991207342,-0.624333346,-1.196928948,3.02E-10,2.59E-05,9.72E-09
0,0,0,0,0,0,4.94E-05,0.002866433,2.86E-07,0.999995891,0.000216753,0.000298481,-0.000332162,-0.057847058,-0.022036854,9.965334738,1,-0.417248874,0.239553329,-0.991207342,-0.624186106,0.337093229,7.93E-09,-6.04E-05,2.53E-09
0,0,0,0,0,0,4.94E-05,0.002866288,2.86E-07,0.999995891,0.000196919,0.001006773,-0.000234682,-0.046376955,0.005739022,10.21979434,1,-0.417248627,0.239289503,-0.991207342,-0.621140389,0.879315252,1.38E-08,-1.65E-05,5.29E-09
0,0,0,0,0,0,4.94E-05,0.002866326,2.86E-07,0.999995891,0.000279012,0.000330591,-0.000211354,-0.065246906,0.004853357,9.010790196,1,-0.417248597,0.239358921,-0.991207342,-0.624267876,-1.697509981,1.69E-09,4.35E-06,9.11E-09
0,0,0,0,0,0,4.94E-05,0.00286597,2.87E-07,0.999995892,0.000477209,0.000647834,0.00019419,-0.045992394,0.00340468,10.4203096,1,-0.417248412,0.238707802,-0.991207342,-0.622370965,1.306721815,1.03E-08,-4.08E-05,1.81E-09
0,0,0,0,0,0,4.94E-05,0.002866143,2.87E-07,0.999995891,0.000290063,0.000765366,0.000107475,-0.056707042,-0.009434783,9.534945799,1,-0.417248357,0.239024434,-0.991207341,-0.622383079,-0.580360909,3.06E-09,1.99E-05,8.18E-09
0,0,0,0,0,0,4.94E-05,0.002865785,2.87E-07,0.999995892,-3.79E-05,0.000283037,0.00018037,-0.067922187,0.008191474,9.876264783,1,-0.417248274,0.238369987,-0.991207341,-0.625055167,0.14732768,4.63E-09,-4.11E-05,3.46E-09
0,0,0,0,0,0,4.94E-05,0.002865809,2.87E-07,0.999995892,0.000117219,0.000648459,0.00028916,-0.0343218,0.003986916,10.21123708,1,-0.417248146,0.238413733,-0.991207341,-0.622963192,0.860971529,7.16E-09,2.74E-06,6.32E-09
0,0,0,0,0,0,4.94E-05,0.00286573,2.87E-07,0.999995893,0.000545415,0.000617498,0.000306841,-0.034990685,-0.002633154,9.092675886,1,-0.417248161,0.238269929,-0.991207341,-0.622089155,-1.523325076,-8.81E-10,-9.02E-06,8.16E-09
0,0,0,0,0,0,4.94E-05,0.002865536,2.87E-07,0.999995893,0.000389612,0.000856905,-0.000269719,-0.063101785,-0.01411341,10.35960686,1,-0.417248006,0.237915589,-0.991207341,-0.621541137,1.177540925,8.67E-09,-2.22E-05,3.21E-09
0,0,0,0,0,0,4.94E-05,0.002865734,2.87E-07,0.999995893,0.000331814,0.000357314,-0.00033977,-0.030030311,0.011486886,9.248269793,1,-0.417248025,0.238276208,-0.991207341,-0.623649617,-1.191687505,-1.05E-09,2.26E-05,9.54E-09
0,0,0,0,0,0,4.94E-05,0.002865395,2.87E-07,0.999995894,0.000192813,0.000573131,6.78E-06,-0.053606237,-0.000846311,10.14968622,1,-0.417247928,0.237658017,-0.99120734,-0.62359258,0.729947428,5.39E-09,-3.88E-05,3.22E-09
0,0,0,0,0,0,4.94E-05,0.002865584,2.87E-07,0.999995893,0.000146126,0.000647649,-0.00039553,-0.035375237,-0.003691535,9.84484519,1,-0.417247875,0.23800232,-0.99120734,-0.622671762,0.079985779,2.96E-09,2.16E-05,7.96E-09
0,0,0,0,0,0,4.94E-05,0.002865386,2.87E-07,0.999995894,0.000465285,0.000347286,-0.000172447,-0.057992547,0.018534101,9.530360597,1,-0.417247889,0.237641298,-0.99120734,-0.623587449,-0.590089563,-7.42E-10,-2.26E-05,7.07E-09
0,0,0,0,0,0,4.94E-05,0.002865356,2.87E-07,0.999995894,0.000271213,0.000952643,-5.09E-05,-0.041868503,0.009524308,10.2647225,1,-0.417247777,0.237586147,-0.99120734,-0.621472088,0.975047462,6.20E-09,-3.46E-06,5.89E-09
0,0,0,0,0,0,4.94E-05,0.002865506,2.87E-07,0.999995893,0.000156391,0.000487373,-0.00011148,-0.065916645,0.009813753,9.015431481,1,-0.417247849,0.2378595,-0.99120734,-0.624035682,-1.68759793,-3.97E-09,1.71E-05,1.08E-08
0,0,0,0,0,0,4.94E-05,0.00286526,2.87E-07,0.999995894,-0.000340961,0.000633756,-7.43E-05,-0.064590033,-0.004979309,10.42804477,1,-0.41724775,0.237409936,-0.991207339,-0.622942056,1.323421427,5.49E-09,-2.82E-05,3.63E-09
0,0,0,0,0,0,4.94E-05,0.002865543,2.87E-07,0.999995893,8.59E-05,0.000773002,0.000107615,-0.067857098,0.015981665,9.55063458,1,-0.417247777,0.237928071,-0.991207339,-0.622604065,-0.546745876,-1.47E-09,3.25E-05,1.01E-08
0,0,0,0,0,0,4.94E-05,0.002865295,2.87E-07,0.999995894,0.000201924,0.000717464,-0.000190913,-0.037442232,-0.019209392,9.87846649,1,-0.417247773,0.237474974,-0.991207339,-0.622690489,0.151706794,2.15E-10,-2.84E-05,5.48E-09
0,0,0,0,0,0,4.94E-05,0.002865429,2.87E-07,0.999995893,-6.42E-05,0.000689476,0.000180403,-0.05923224,-0.018339957,10.18801106,1,-0.417247723,0.237720279,-0.991207339,-0.622985381,0.811740734,2.80E-09,1.54E-05,8.36E-09
0,0,0,0,0,0,4.94E-05,0.002865461,2.88E-07,0.999995893,0.000239767,0.000871043,4.38E-05,-0.038051784,0.000111158,9.12345372,1,-0.417247816,0.237778105,-0.991207339,-0.621950352,-1.45769446,-5.22E-09,3.63E-06,1.02E-08
0,0,0,0,0,0,4.94E-05,0.002865377,2.88E-07,0.999995894,-0.000108576,0.000874784,-2.21E-05,-0.062087748,-0.002709589,10.37113054,1,-0.417247738,0.237625375,-0.991207338,-0.622074866,1.202071475,4.36E-09,-9.58E-06,5.12E-09
0,0,0,0,0,0,4.94E-05,0.002865685,2.88E-07,0.999995893,0.00029838,0.000561006,0.000245194,-0.05299829,0.023611226,9.222289107,1,-0.417247834,0.23818756,-0.991207338,-0.623174294,-1.246797835,-5.34E-09,3.53E-05,1.13E-08
0,0,0,0,0,0,4.94E-05,0.002865457,2.88E-07,0.999995893,0.000361759,0.000611436,-2.82E-05,-0.059437363,0.009992723,10.17394349,1,-0.417247813,0.237770867,-0.991207338,-0.623010424,0.781732753,1.14E-09,-2.61E-05,4.86E-09
0,0,0,0,0,0,4.94E-05,0.002865756,2.88E-07,0.999995892,-0.000118827,0.000652498,-4.49E-05,-0.048268093,-0.027032638,9.841046909,1,-0.417247836,0.238316538,-0.991207338,-0.623263793,0.072083902,-1.25E-09,3.42E-05,9.45E-09
0,0,0,0,0,0,4.94E-05,0.002865668,2.88E-07,0.999995893,-9.41E-05,0.000392231,-5.40E-05,-0.072300887,-0.001754344,9.533718127,1,-0.417247924,0.238156785,-0.991207337,-0.624676091,-0.582762475,-4.91E-09,-1.00E-05,8.39E-09
0,0,0,0,0,0,4.94E-05,0.002865748,2.88E-07,0.999995893,0.000313593,0.000523275,9.91E-05,-0.031107136,-0.014777269,10.23581329,1,-0.417247886,0.238302761,-0.991207337,-0.623519637,0.913356879,2.08E-09,9.16E-06,7.03E-09
0,0,0,0,0,0,4.94E-05,0.002866008,2.88E-07,0.999995892,0.000250616,0.000442671,0.000547313,-0.055801099,0.027620583,9.023640373,1,-0.417248031,0.238777096,-0.991207337,-0.622812064,-1.670167088,-8.06E-09,2.98E-05,1.18E-08
0,0,0,0,0,0,4.94E-05,0.002865872,2.88E-07,0.999995892,-5.54E-05,0.000512059,0.000179586,-0.065889885,-0.001167626,10.44959732,1,-0.417248005,0.238528392,-0.991207337,-0.623917306,1.369376686,1.44E-09,-1.56E-05,4.51E-09
0,0,0,0,0,0,4.94E-05,0.002866265,2.88E-07,0.999995891,0.000203244,0.000541879,0.000310587,-0.025833769,-0.004029351,9.531186742,1,-0.417248103,0.239247216,-0.991207336,-0.62330726,-0.588666632,-5.47E-09,4.51E-05,1.09E-08
0,0,0,0,0,0,4.94E-05,0.002866127,2.88E-07,0.999995891,0.000221038,0.000724601,-0.000378707,-0.029458947,0.013068951,9.847426416,1,-0.41724817,0.238994702,-0.991207336,-0.622265643,0.085463359,-3.75E-09,-1.58E-05,6.23E-09
0,0,0,0,0,0,4.94E-05,0.002866371,2.88E-07,0.999995891,0.000237643,0.000863832,-0.00013354,-0.074261492,-0.011996209,10.20290328,1,-0.41724819,0.239440432,-0.991207336,-0.621943122,0.843673766,-1.12E-09,2.80E-05,9.08E-09
0,0,0,0,0,0,4.94E-05,0.002866512,2.88E-07,0.99999589,0.000110107,0.000417584,0.000310181,-0.036597332,-0.013541906,9.099854788,1,-0.417248353,0.239698548,-0.991207336,-0.623992637,-1.50798856,-9.10E-09,1.62E-05,1.09E-08
0,0,0,0,0,0,4.94E-05,0.002866538,2.88E-07,0.99999589,0.000721565,0.001094219,0.000160513,-0.082853904,-7.01E-05,10.35829737,1,-0.417248344,0.239745973,-0.991207336,-0.61967136,1.175025818,5.28E-10,2.97E-06,5.89E-09
0,0,0,0,0,0,4.94E-05,0.002866955,2.88E-07,0.999995889,-0.000575404,0.000538791,-0.000115324,-0.031795919,-0.006590816,9.270726907,1,-0.417248507,0.240508148,-0.991207335,-0.622541082,-1.143816011,-9.13E-09,4.78E-05,1.22E-08
0,0,0,0,0,0,4.94E-05,0.002866837,2.89E-07,0.999995889,0.000510629,0.000500135,-0.000628355,-0.049360956,0.015244573,10.17108268,1,-0.417248554,0.240291341,-0.991207335,-0.621691863,0.775533786,-2.61E-09,-1.36E-05,5.78E-09
0,0,0,0,0,0,4.94E-05,0.002867245,2.89E-07,0.999995888,-0.000213354,0.001076599,-6.26E-05,-0.030694771,0.037295113,9.874295452,1,-0.417248643,0.241036727,-0.991207335,-0.620883087,0.142876601,-4.96E-09,4.68E-05,1.05E-08
0,0,0,0,0,0,4.94E-05,0.002867267,2.89E-07,0.999995888,0.000243343,0.000310717,0.000450463,-0.059477825,0.012678559,9.53739485,1,-0.417248797,0.241076579,-0.991207334,-0.623624549,-0.575096636,-8.58E-09,2.50E-06,9.51E-09
0,0,0,0,0,0,4.94E-05,0.002867456,2.89E-07,0.999995888,-6.38E-05,0.00079518,-5.96E-05,-0.091069863,0.008016204,10.2917106,1,-0.417248824,0.241422012,-0.991207334,-0.622523056,1.033249172,-1.55E-09,2.17E-05,8.24E-09
0,0,0,0,0,0,4.94E-05,0.002867824,2.89E-07,0.999995887,0.000204469,0.000480011,-0.000110014,-0.039830715,0.001495373,8.987874647,1,-0.417249033,0.242095658,-0.991207334,-0.623984358,-1.74667451,-1.16E-08,4.23E-05,1.31E-08
0,0,0,0,0,0,4.94E-05,0.002867797,2.89E-07,0.999995887,0.000508727,0.001023034,0.000206467,-0.04329039,0.023421363,10.43171035,1,-0.417249071,0.242046146,-0.991207334,-0.620544924,1.331053549,-2.10E-09,-3.11E-06,5.88E-09
0,0,0,0,0,0,4.94E-05,0.0028683,2.89E-07,0.999995885,0.000106048,0.000918497,-0.000121434,-0.04899455,-0.006247174,9.552611215,1,-0.417249231,0.242963996,-0.991207333,-0.621796759,-0.54280266,-8.97E-09,5.76E-05,1.24E-08
0,0,0,0,0,0,4.94E-05,0.002868123,2.89E-07,0.999995886,0.000333321,0.000593015,-0.000354115,-0.04892344,0.002630358,9.623339105,1,-0.417249334,0.242641057,-0.991207333,-0.622704069,-0.392045969,-5.74E-09,-2.03E-05,8.39E-09
0,0,0,0,0,0,4.94E-05,0.002868112,2.89E-07,0.999995886,8.32E-05,0.000739664,-7.81E-05,-0.055381736,0.029071076,10.31236426,1,-0.417249223,0.242620407,-0.991207333,-0.622805453,1.076813171,6.20E-09,-1.30E-06,6.97E-09
0,0,0,0,0,0,4.94E-05,0.002868636,2.89E-07,0.999995884,-2.66E-05,0.00066643,-4.02E-06,-0.055241988,0.032199103,9.507190332,1,-0.417249349,0.243578507,-0.991207333,-0.6232516,-0.639435308,-7.05E-09,6.01E-05,1.24E-08
0,0,0,0,0,0,4.94E-05,0.002868485,2.89E-07,0.999995885,5.45E-05,0.000754865,0.000239776,-0.064678004,0.016273047,9.640128251,1,-0.41724946,0.243302452,-0.991207332,-0.622556227,-0.356032442,-6.17E-09,-1.73E-05,8.28E-09
0,0,0,0,0,0,4.94E-05,0.002868499,2.89E-07,0.999995885,0.000118204,0.000524596,-0.000148854,-0.042319272,0.007233273,10.29583909,1,-0.417249369,0.243327534,-0.991207332,-0.62384876,1.041374714,5.06E-09,1.57E-06,6.79E-09
0,0,0,0,0,0,4.94E-05,0.002868907,2.89E-07,0.999995883,0.000124536,0.000554816,0.000117597,-0.039220205,0.001484088,9.260381621,1,-0.417249492,0.244073671,-0.991207332,-0.623724493,-1.165811871,-6.86E-09,4.68E-05,1.20E-08
0,0,0,0,0,0,4.94E-05,0.002868561,2.89E-07,0.999995884,-2.35E-05,0.000316875,0.000329291,-0.042814692,-0.016349618,9.972180875,1,-0.41724946,0.24344179,-0.991207332,-0.624398623,0.351501066,1.78E-09,-3.96E-05,4.60E-09
0,0,0,0,0,0,4.94E-05,0.002868599,2.90E-07,0.999995884,0.00020143,0.000927288,-8.63E-05,-0.043130051,0.012788836,10.24455761,1,-0.417249319,0.243511389,-0.991207332,-0.621685618,0.932083255,7.87E-09,4.37E-06,7.17E-09
0,0,0,0,0,0,4.94E-05,0.002869032,2.90E-07,0.999995883,0.000256196,0.000603625,0.000187651,-0.067452954,-0.010383582,9.226640974,1,-0.417249446,0.244302168,-0.991207331,-0.623168929,-1.237372442,-7.10E-09,4.96E-05,1.15E-08
0,0,0,0,0,0,4.94E-05,0.002868712,2.90E-07,0.999995884,-9.10E-05,0.000541077,-0.000188583,-0.044728005,-0.027515675,9.947220695,1,-0.417249436,0.243717819,-0.991207331,-0.62372709,0.298367129,5.81E-10,-3.67E-05,4.15E-09
0,0,0,0,0,0,4.94E-05,0.002868775,2.90E-07,0.999995884,-0.000216699,0.001146467,0.0001138,-0.047641061,-0.004672554,10.23020901,1,-0.417249319,0.243831902,-0.991207331,-0.620483258,0.901526078,6.51E-09,7.16E-06,6.83E-09
0,0,0,0,0,0,4.94E-05,0.002869019,2.90E-07,0.999995883,0.0002049,0.000445364,0.000206929,-0.053398403,0.000204488,9.004832931,1,-0.417249418,0.244278809,-0.991207331,-0.623990368,-1.71037727,-5.50E-09,2.80E-05,1.06E-08
0,0,0,0,0,0,4.94E-05,0.002868576,2.90E-07,0.999995884,5.77E-05,0.000667072,0.000172571,-0.086248912,-0.00934614,10.29170922,1,-0.417249271,0.243469072,-0.991207331,-0.62311757,1.033160106,8.20E-09,-5.08E-05,2.08E-09
0,0,0,0,0,0,4.94E-05,0.002868664,2.90E-07,0.999995884,-0.000308149,0.000728977,-0.000363895,-0.0515569,0.005042791,10.18293196,1,-0.41724912,0.24362882,-0.99120733,-0.622133442,0.800792829,8.44E-09,1.00E-05,6.57E-09
0,0,0,0,0,0,4.94E-05,0.002868933,2.90E-07,0.999995883,4.63E-05,0.00041494,-6.71E-05,-0.077214813,0.02249865,8.97649698,1,-0.417249229,0.244120848,-0.99120733,-0.624588884,-1.77034747,-6.09E-09,3.09E-05,1.06E-08
0,0,0,0,0,0,4.94E-05,0.002868516,2.90E-07,0.999995885,-6.23E-05,0.000520801,0.000388016,-0.054857036,0.010989592,10.26058336,1,-0.417249106,0.24335857,-0.99120733,-0.623331277,0.966358201,6.85E-09,-4.78E-05,2.14E-09
0,0,0,0,0,0,4.94E-05,0.002868627,2.90E-07,0.999995884,0.000208811,0.000920593,-0.000198057,-0.050880607,0.003761061,10.17049001,1,-0.41724898,0.24356241,-0.99120733,-0.621621497,0.774263558,7.03E-09,1.28E-05,6.77E-09
0,0,0,0,0,0,4.94E-05,0.002868635,2.90E-07,0.999995884,8.53E-05,0.000767226,0.000114514,-0.06500717,0.012514571,8.815579686,1,-0.417249028,0.243577178,-0.99120733,-0.622630211,-2.113595661,-2.69E-09,9.26E-07,9.66E-09
0,0,0,0,0,0,4.94E-05,0.002868168,2.90E-07,0.999995886,8.75E-05,0.000725667,6.25E-06,-0.05642085,0.027551988,10.52015274,1,-0.417248786,0.242724007,-0.99120733,-0.622901145,1.519728549,1.35E-08,-5.35E-05,9.99E-10
0,0,0,0,0,0,4.94E-05,0.002868305,2.90E-07,0.999995885,-3.82E-05,0.000577336,-0.000232005,-0.055592609,0.014042394,10.14703944,1,-0.417248641,0.242973435,-0.991207329,-0.623490415,0.724349068,8.11E-09,1.56E-05,7.01E-09
0,0,0,0,0,0,4.94E-05,0.002868338,2.90E-07,0.999995885,-9.93E-05,0.000863652,9.35E-05,-0.031854733,-0.026208837,8.806008407,1,-0.417248705,0.24303428,-0.991207329,-0.622115487,-2.134321615,-3.60E-09,3.82E-06,9.93E-09
0,0,0,0,0,0,4.94E-05,0.002867897,2.90E-07,0.999995886,0.000184239,0.00063736,7.99E-05,-0.053919882,-0.004906424,10.50207585,1,-0.41724849,0.242228367,-0.991207329,-0.62324462,1.481094071,1.20E-08,-5.06E-05,1.31E-09
0,0,0,0,0,0,4.94E-05,0.002868058,2.90E-07,0.999995886,0.000223698,0.00060307,3.94E-05,-0.051787996,0.02343976,9.80190958,1,-0.417248371,0.242521613,-0.991207329,-0.623375116,-0.011321023,6.63E-09,1.84E-05,7.35E-09
0,0,0,0,0,0,4.94E-05,0.002867759,2.91E-07,0.999995887,0.000339464,0.000354214,-0.000101048,-0.048197789,0.010744383,9.268292662,1,-0.417248336,0.241976349,-0.991207329,-0.624161333,-1.148845642,1.96E-09,-3.42E-05,7.56E-09
0,0,0,0,0,0,4.94E-05,0.002867339,2.91E-07,0.999995888,5.93E-05,0.000618116,-0.000178669,-0.061947835,0.033698543,10.41726247,1,-0.417248028,0.24120968,-0.991207329,-0.623365673,1.300517847,1.72E-08,-4.81E-05,1.58E-09
0,0,0,0,0,0,4.94E-05,0.002867525,2.91E-07,0.999995887,0.000478808,0.001291992,6.66E-05,-0.057857867,-0.001872541,9.776846377,1,-0.417247902,0.241548267,-0.991207328,-0.61934833,-0.064731611,7.03E-09,2.12E-05,7.44E-09
0,0,0,0,0,0,4.94E-05,0.002867252,2.91E-07,0.999995888,5.03E-05,0.000477102,-0.000272246,-0.073779337,0.006880167,9.244553636,1,-0.417247888,0.24105037,-0.991207328,-0.623883616,-1.19909496,7.83E-10,-3.12E-05,7.61E-09
0,0,0,0,0,0,4.94E-05,0.002866858,2.91E-07,0.999995889,0.000370707,0.00070315,-6.95E-05,-0.054283176,-0.015153264,10.42628551,1,-0.417247609,0.24033045,-0.991207328,-0.622534236,1.31956717,1.56E-08,-4.52E-05,1.63E-09
0,0,0,0,0,0,4.94E-05,0.002866998,2.91E-07,0.999995889,8.45E-05,0.000280168,0.00022975,-0.052855923,0.022942525,9.521899086,1,-0.417247504,0.240586803,-0.991207328,-0.624867256,-0.608168952,5.89E-09,1.61E-05,7.86E-09
0,0,0,0,0,0,4.94E-05,0.002866609,2.91E-07,0.99999589,7.58E-06,0.000721053,-0.000107436,-0.057897489,-0.012072278,9.843717621,1,-0.417247389,0.239875396,-0.991207328,-0.622911522,0.077824026,6.38E-09,-4.46E-05,3.10E-09
0,0,0,0,0,0,4.94E-05,0.002866602,2.91E-07,0.99999589,-0.00021984,0.000927357,5.02E-05,-0.036220199,0.005865884,10.1845852,1,-0.417247237,0.239862954,-0.991207328,-0.621677119,0.804176865,8.49E-09,-7.80E-07,5.91E-09
0,0,0,0,0,0,4.94E-05,0.002866493,2.91E-07,0.99999589,0.000384558,0.000465141,4.83E-05,-0.025780865,0.015093758,9.128047228,1,-0.417247232,0.239663,-0.991207327,-0.623588621,-1.447967916,3.04E-10,-1.25E-05,7.70E-09
0,0,0,0,0,0,4.94E-05,0.002866268,2.91E-07,0.999995891,-0.000140633,0.000610743,9.58E-05,-0.054358205,0.032060911,10.33522664,1,-0.417247056,0.23925251,-0.991207327,-0.623432175,1.125552806,9.81E-09,-2.57E-05,2.72E-09
0,0,0,0,0,0,4.94E-05,0.002866435,2.91E-07,0.999995891,-0.000151596,0.000821864,0.000267667,-0.046344847,-0.030179467,9.259381967,1,-0.417247055,0.239556797,-0.991207327,-0.622098024,-1.167767956,6.65E-11,1.91E-05,9.01E-09
0,0,0,0,0,0,4.94E-05,0.002866065,2.91E-07,0.999995892,-0.000218077,0.000683227,0.00013463,-0.052826103,-0.020328935,10.20019971,1,-0.417246938,0.238882238,-0.991207327,-0.622907897,0.837654506,6.50E-09,-4.23E-05,2.68E-09
0,0,0,0,0,0,4.94E-05,0.002866223,2.91E-07,0.999995891,-0.000339826,0.000551136,0.000310954,-0.089534562,-0.018947521,9.854645873,1,-0.417246865,0.23917011,-0.991207327,-0.622970536,0.101645686,4.07E-09,1.81E-05,7.42E-09
0,0,0,0,0,0,4.94E-05,0.002865994,2.91E-07,0.999995892,9.14E-05,0.000805753,-0.000341541,-0.068222072,-0.02089812,9.540741791,1,-0.417246859,0.238752644,-0.991207327,-0.622085096,-0.567806903,3.61E-10,-2.62E-05,6.55E-09
0,0,0,0,0,0,4.94E-05,0.002865933,2.91E-07,0.999995892,-0.000343861,0.000409551,0.000196223,-0.013390597,0.021246261,10.28107811,1,-0.417246728,0.23864106,-0.991207326,-0.623784894,1.00978491,7.30E-09,-7.00E-06,5.39E-09
0,0,0,0,0,0,4.94E-05,0.002866052,2.91E-07,0.999995892,0.000242891,0.000319465,3.52E-05,-0.053276595,-0.0213533,8.970289037,1,-0.41724678,0.238858003,-0.991207326,-0.624698522,-1.783956841,-2.89E-09,1.36E-05,1.03E-08
0,0,0,0,0,0,4.94E-05,0.002865775,2.91E-07,0.999995892,0.000291663,0.000796111,-7.44E-05,-0.061286746,-0.001753067,10.42169382,1,-0.417246662,0.238352058,-0.991207326,-0.622242844,1.309839297,6.56E-09,-3.17E-05,3.21E-09
0,0,0,0,0,0,4.94E-05,0.002866028,2.91E-07,0.999995892,0.000339653,0.000337805,0.000479277,-0.045509091,0.00095753,9.532677324,1,-0.41724667,0.238813855,-0.991207326,-0.623193226,-0.585334106,-4.12E-10,2.90E-05,9.74E-09
0,0,0,0,0,0,4.94E-05,0.002865749,2.92E-07,0.999995893,0.00016158,0.000521731,0.000113554,-0.052336726,0.025333921,9.869667234,1,-0.417246647,0.238304449,-0.991207326,-0.623849373,0.133124397,1.25E-09,-3.20E-05,5.14E-09
0,0,0,0,0,0,4.94E-05,0.002865853,2.92E-07,0.999995892,0.000371687,0.000933574,-2.16E-06,-0.037685104,0.002763515,10.19216782,1,-0.417246579,0.238493489,-0.991207325,-0.621400638,0.820348347,3.82E-09,1.19E-05,8.05E-09
0,0,0,0,0,0,4.94E-05,0.002865854,2.92E-07,0.999995892,0.000307555,0.000408465,-0.000137278,-0.039473679,0.008392108,9.145590473,1,-0.417246654,0.238495091,-0.991207325,-0.624005199,-1.410487287,-4.21E-09,1.00E-07,9.89E-09
0,0,0,0,0,0,4.94E-05,0.002865739,2.92E-07,0.999995893,-3.75E-05,0.000724583,-0.000174707,-0.050433681,0.029383737,10.35755309,1,-0.417246558,0.238286177,-0.991207325,-0.622817074,1.173083563,5.36E-09,-1.31E-05,4.87E-09
0,0,0,0,0,0,4.94E-05,0.002866016,2.92E-07,0.999995892,-0.000160203,0.000665977,-0.000151822,-0.048781681,0.029014338,9.243625316,1,-0.417246636,0.238792225,-0.991207325,-0.62306192,-1.201335334,-4.35E-09,3.17E-05,1.11E-08
0,0,0,0,0,0,4.94E-05,0.002865757,2.92E-07,0.999995892,-0.00061042,0.000872987,-1.60E-05,-0.039480737,-0.007680102,10.18687498,1,-0.417246599,0.238319427,-0.991207325,-0.62106917,0.809086113,2.10E-09,-2.97E-05,4.64E-09
0,0,0,0,0,0,4.94E-05,0.002866025,2.92E-07,0.999995892,6.30E-05,0.000770675,2.65E-05,-0.046733637,0.005720861,9.828047654,1,-0.417246604,0.238809044,-0.991207324,-0.622666909,0.044283724,-3.02E-10,3.07E-05,9.23E-09
0,0,0,0,0,0,4.94E-05,0.002865907,2.92E-07,0.999995892,0.000151342,0.000730369,-0.000373038,-0.057986999,0.015869137,9.501862207,1,-0.417246675,0.238593269,-0.991207324,-0.622336764,-0.650845621,-3.97E-09,-1.35E-05,8.16E-09
0,0,0,0,0,0,4.94E-05,0.002865957,2.92E-07,0.999995892,0.000298653,0.000734019,5.61E-05,-0.059925347,-0.007471368,10.25577712,1,-0.417246621,0.238683268,-0.991207324,-0.622553321,0.956167116,3.00E-09,5.65E-06,6.80E-09
0,0,0,0,0,0,4.94E-05,0.002866186,2.92E-07,0.999995891,0.000356059,0.000590705,-0.000132273,-0.06484063,-0.027166396,9.031001456,1,-0.417246749,0.239101669,-0.991207324,-0.623058151,-1.654350873,-7.15E-09,2.62E-05,1.15E-08
0,0,0,0,0,0,4.94E-05,0.002866019,2.92E-07,0.999995892,0.0004276,0.001014375,0.000368704,-0.064755874,0.021465663,10.42632517,1,-0.417246707,0.238797066,-0.991207323,-0.620545607,1.319802759,2.34E-09,-1.91E-05,4.24E-09
0,0,0,0,0,0,4.94E-05,0.002866382,2.92E-07,0.999995891,-9.69E-06,0.000672683,-0.00027557,-0.062098987,-0.020710368,9.521646,1,-0.41724679,0.239460041,-0.991207323,-0.622922741,-0.608600392,-4.58E-09,4.16E-05,1.06E-08
0,0,0,0,0,0,4.94E-05,0.002866213,2.92E-07,0.999995891,-0.000150313,0.000995307,2.10E-05,-0.039362757,0.006810059,9.868759688,1,-0.417246841,0.239151709,-0.991207323,-0.62138987,0.130997126,-2.88E-09,-1.93E-05,5.90E-09
0,0,0,0,0,0,4.94E-05,0.002866426,2.92E-07,0.999995891,0.000172645,0.000934642,-5.71E-05,-0.036916542,-0.014709248,10.22521308,1,-0.417246846,0.239541665,-0.991207323,-0.621689229,0.890802661,-2.67E-10,2.45E-05,8.73E-09
0,0,0,0,0,0,4.94E-05,0.002866537,2.92E-07,0.99999589,-0.00022327,0.000281195,-0.000127764,-0.045235529,0.008295104,9.132838502,1,-0.417246994,0.239744047,-0.991207322,-0.62481766,-1.437612256,-8.25E-09,1.27E-05,1.05E-08
0,0,0,0,0,0,4.94E-05,0.002866533,2.93E-07,0.99999589,0.000152493,0.00065206,0.000113652,-0.039821361,-0.011090448,10.36182967,1,-0.417246969,0.239735775,-0.991207322,-0.623184465,1.18202467,1.36E-09,-5.19E-07,5.51E-09
0,0,0,0,0,0,4.94E-05,0.002866919,2.93E-07,0.999995889,-0.000304233,0.000845848,-7.14E-05,-0.067388056,0.013364222,9.278622491,1,-0.417247118,0.240442301,-0.991207322,-0.621965533,-1.126564934,-8.31E-09,4.43E-05,1.18E-08
0,0,0,0,0,0,4.94E-05,0.00286677,2.93E-07,0.99999589,0.000188718,0.000358445,-0.000150312,-0.024562484,0.007240257,10.13796582,1,-0.417247151,0.240169874,-0.991207322,-0.624538437,0.704731407,-1.81E-09,-1.71E-05,5.38E-09
0,0,0,0,0,0,4.94E-05,0.002867148,2.93E-07,0.999995889,0.000148116,0.00093818,6.27E-05,-0.088311244,0.0283106,9.83216087,1,-0.417247226,0.24085969,-0.991207322,-0.621690891,0.053743279,-4.17E-09,4.33E-05,1.01E-08
0,0,0,0,0,0,4.94E-05,0.002867139,2.93E-07,0.999995889,0.000426957,0.000665371,-0.000174981,-0.069639538,0.034516283,9.529067821,1,-0.417247365,0.240844003,-0.991207321,-0.622469656,-0.592584092,-7.80E-09,-9.84E-07,9.11E-09
0,0,0,0,0,0,4.94E-05,0.002867298,2.93E-07,0.999995888,0.000199846,0.000744228,4.31E-05,-0.042312369,-0.024149158,10.2571469,1,-0.41724738,0.241133939,-0.991207321,-0.622677353,0.958954563,-7.89E-10,1.82E-05,7.85E-09
0,0,0,0,0,0,4.94E-05,0.002867636,2.93E-07,0.999995887,-8.69E-07,0.000743184,3.38E-05,-0.035644545,0.018867881,9.056766019,1,-0.417247575,0.241752129,-0.991207321,-0.622829883,-1.599823184,-1.09E-08,3.88E-05,1.27E-08
0,0,0,0,0,0,4.94E-05,0.002867579,2.93E-07,0.999995887,8.15E-05,0.000559042,-9.77E-05,-0.060788242,0.008307922,10.42239565,1,-0.417247599,0.241647196,-0.991207321,-0.623764527,1.311335817,-1.36E-09,-6.58E-06,5.51E-09
0,0,0,0,0,0,4.94E-05,0.002868051,2.93E-07,0.999995886,-0.000124249,0.000814175,4.18E-05,-0.066770698,-0.020009833,9.514919567,1,-0.417247747,0.242509672,-0.99120732,-0.622387735,-0.622873826,-8.25E-09,5.41E-05,1.20E-08
0,0,0,0,0,0,4.94E-05,0.002867844,2.93E-07,0.999995887,3.71E-05,0.000695017,-7.23E-05,-0.046342953,0.013397901,9.632428733,1,-0.417247837,0.242131381,-0.99120732,-0.623072031,-0.372678945,-5.03E-09,-2.37E-05,8.04E-09
0,0,0,0,0,0,4.94E-05,0.002867802,2.93E-07,0.999995887,0.000110008,0.000430044,0.000193697,-0.081850305,0.018470309,10.32761411,1,-0.417247714,0.242055421,-0.99120732,-0.624252277,1.109641861,6.89E-09,-4.76E-06,6.64E-09
0,0,0,0,0,0,4.94E-05,0.002868297,2.93E-07,0.999995885,0.000158011,0.000672095,1.73E-05,-0.074262652,-0.005946267,9.46938627,1,-0.417247827,0.242958262,-0.991207319,-0.623121982,-0.719851793,-6.36E-09,5.66E-05,1.21E-08
0,0,0,0,0,0,4.94E-05,0.002868115,2.93E-07,0.999995886,0.000136232,0.0010702,-4.98E-05,-0.042089372,-0.033310109,9.655459304,1,-0.417247926,0.242626971,-0.991207319,-0.620989008,-0.323526633,-5.50E-09,-2.08E-05,7.97E-09
0,0,0,0,0,0,4.94E-05,0.002868099,2.93E-07,0.999995886,5.96E-05,0.000706532,0.000162131,-0.044551112,-0.008570648,10.32855721,1,-0.417247824,0.242596857,-0.991207319,-0.622920875,1.111137984,5.72E-09,-1.89E-06,6.49E-09
0,0,0,0,0,0,4.94E-05,0.002868477,2.94E-07,0.999995885,0.000124084,0.000514209,-5.11E-05,-0.069913568,0.009927519,9.250253267,1,-0.417247935,0.243287846,-0.991207319,-0.623994173,-1.187004159,-6.21E-09,4.33E-05,1.17E-08
0,0,0,0,0,0,4.94E-05,0.002868101,2.94E-07,0.999995886,0.000208041,0.000658451,0.000162801,-0.023379426,0.023464146,9.972225868,1,-0.417247892,0.242600838,-0.991207319,-0.623018815,0.351489749,2.41E-09,-4.31E-05,4.30E-09
0,0,0,0,0,0,4.94E-05,0.002868109,2.94E-07,0.999995886,-7.14E-05,0.000644592,0.000168256,-0.047175981,0.004398836,10.26707873,1,-0.417247739,0.242615353,-0.991207318,-0.623234994,0.980111579,8.50E-09,9.10E-07,6.88E-09
0,0,0,0,0,0,4.94E-05,0.002868512,2.94E-07,0.999995885,-0.000283744,0.000726569,-0.000452124,-0.033238502,-0.020626675,9.224222409,1,-0.417247856,0.243351096,-0.991207318,-0.621966412,-1.242889046,-6.49E-09,4.61E-05,1.12E-08
0,0,0,0,0,0,4.94E-05,0.002868162,2.94E-07,0.999995886,8.39E-05,0.000655041,-0.000245235,-0.057225967,0.016885214,9.94291982,1,-0.417247834,0.242711734,-0.991207318,-0.623046239,0.289285534,1.18E-09,-4.01E-05,3.85E-09
0,0,0,0,0,0,4.94E-05,0.002868194,2.94E-07,0.999995886,0.000417628,0.000703101,3.97E-05,-0.015014072,-0.014435529,10.27762488,1,-0.417247707,0.242770845,-0.991207318,-0.622420157,1.002403618,7.10E-09,3.71E-06,6.51E-09
0,0,0,0,0,0,4.94E-05,0.002868409,2.94E-07,0.999995885,0.000122598,0.000525403,-4.59E-06,-0.056053071,0.029361615,9.012423677,1,-0.417247795,0.243162822,-0.991207318,-0.623949745,-1.694060874,-4.92E-09,2.46E-05,1.03E-08
0,0,0,0,0,0,4.94E-05,0.002867935,2.94E-07,0.999995886,0.000254402,0.000663818,-0.000117874,-0.049829805,0.009825568,10.27469602,1,-0.417247638,0.24229818,-0.991207317,-0.622957807,0.99638309,8.76E-09,-5.42E-05,1.75E-09
0,0,0,0,0,0,4.94E-05,0.002867993,2.94E-07,0.999995886,4.92E-05,0.00079295,6.56E-05,-0.047413952,-0.000386815,10.15637183,1,-0.417247477,0.242403067,-0.991207317,-0.622538334,0.744132502,9.00E-09,6.58E-06,6.24E-09
0,0,0,0,0,0,4.94E-05,0.002868232,2.94E-07,0.999995885,0.000180241,0.00012628,-0.000288834,-0.047421447,-0.015862775,8.984904507,1,-0.417247577,0.242840275,-0.991207317,-0.62491619,-1.752897432,-5.55E-09,2.74E-05,1.02E-08
0,0,0,0,0,0,4.94E-05,0.002867785,2.94E-07,0.999995887,0.000289321,0.000398608,0.000154123,-0.047298583,-0.021265391,10.23423709,1,-0.417247445,0.242023202,-0.991207317,-0.624078192,0.910153635,7.38E-09,-5.13E-05,1.79E-09
0,0,0,0,0,0,4.94E-05,0.002867866,2.94E-07,0.999995886,0.000314281,0.000611241,5.04E-05,-0.064188334,0.016692285,10.19629381,1,-0.417247309,0.242172292,-0.991207317,-0.623130096,0.829453746,7.54E-09,9.35E-06,6.42E-09
0,0,0,0,0,0,4.94E-05,0.002867847,2.94E-07,0.999995886,-0.000204516,0.000280191,0.000115964,-0.034647119,0.027146731,9.129410662,1,-0.417247348,0.242137412,-0.991207317,-0.624901737,-1.444939664,-2.13E-09,-2.19E-06,8.33E-09
0,0,0,0,0,0,4.94E-05,0.002867714,2.94E-07,0.999995887,-0.000143146,0.001114917,-0.000283818,-0.037533304,-0.004901309,10.34583465,1,-0.417247226,0.241893569,-0.991207316,-0.620554244,1.147901658,6.80E-09,-1.53E-05,3.39E-09
0,0,0,0,0,0,4.94E-05,0.002867972,2.94E-07,0.999995886,0.000135586,0.000293264,5.25E-05,-0.06725269,-0.009836815,9.255593794,1,-0.417247282,0.242364442,-0.991207316,-0.625112292,-1.175662898,-3.12E-09,2.95E-05,9.76E-09
0,0,0,0,0,0,4.94E-05,0.002867473,2.94E-07,0.999995888,1.88E-05,0.000647134,9.91E-07,-0.051953066,0.050087796,9.961917778,1,-0.417247168,0.241454055,-0.991207316,-0.623358788,0.329957014,6.36E-09,-5.71E-05,2.73E-09
0,0,0,0,0,0,4.94E-05,0.002867359,2.94E-07,0.999995888,-6.74E-05,0.000927163,-0.000112404,-0.036672988,0.0144934,10.2438211,1,-0.41724694,0.241244758,-0.991207316,-0.621775727,0.930464553,1.27E-08,-1.31E-05,5.63E-09
0,0,0,0,0,0,4.94E-05,0.002867639,2.95E-07,0.999995887,0.000330066,0.000543989,8.40E-05,-0.063541656,0.006959217,9.239573796,1,-0.417246979,0.241757098,-0.991207316,-0.623389456,-1.209871642,-2.18E-09,3.21E-05,1.03E-08
0,0,0,0,0,0,4.94E-05,0.002867167,2.95E-07,0.999995888,0.000412494,0.00059779,0.000205561,-0.050523071,-0.016478339,9.9275704,1,-0.41724688,0.240894359,-0.991207316,-0.622770335,0.256488427,5.47E-09,-5.41E-05,3.18E-09
0,0,0,0,0,0,4.94E-05,0.002867077,2.95E-07,0.999995889,0.000258236,0.000709696,-0.000162625,-0.050733269,0.012801576,10.24536034,1,-0.417246677,0.240730458,-0.991207315,-0.622673339,0.933868594,1.13E-08,-1.03E-05,6.04E-09
0,0,0,0,0,0,4.94E-05,0.00286717,2.95E-07,0.999995888,0.000168331,0.000523235,0.000198226,-0.041596607,0.032258331,9.044529983,1,-0.41724669,0.240899724,-0.991207315,-0.623704531,-1.625770317,-7.37E-10,1.06E-05,9.94E-09
0,0,0,0,0,0,4.94E-05,0.002866868,2.95E-07,0.999995889,2.29E-05,0.000827238,0.000183865,-0.072674378,0.005103628,10.45875305,1,-0.417246549,0.240348394,-0.991207315,-0.622261345,1.388990909,7.92E-09,-3.46E-05,2.69E-09
0,0,0,0,0,0,4.94E-05,0.002867096,2.95E-07,0.999995889,0.000207255,0.001068612,2.14E-05,-0.042274091,0.010149769,9.52429323,1,-0.417246537,0.24076473,-0.991207315,-0.62094107,-0.603225723,6.73E-10,2.61E-05,9.10E-09
0,0,0,0,0,0,4.94E-05,0.002866792,2.95E-07,0.99999589,0.000217568,0.000949103,-0.000191606,-0.030786652,-0.008849421,9.86898218,1,-0.417246496,0.240209935,-0.991207315,-0.621468857,0.131409863,2.26E-09,-3.48E-05,4.39E-09
0,0,0,0,0,0,4.94E-05,0.002866871,2.95E-07,0.999995889,0.000185464,0.001073131,-0.000301718,-0.064400611,-0.017495402,10.20174489,1,-0.41724641,0.240353258,-0.991207314,-0.620714665,0.841078718,4.81E-09,8.99E-06,7.24E-09
0,0,0,0,0,0,4.94E-05,0.002866846,2.95E-07,0.999995889,0.000157557,0.000223813,-1.09E-06,-0.052938512,0.000207678,9.129988318,1,-0.417246468,0.240308965,-0.991207314,-0.625406015,-1.443607357,-3.21E-09,-2.78E-06,9.05E-09
0,0,0,0,0,0,4.94E-05,0.002866707,2.95E-07,0.99999589,0.00017904,0.000687315,1.24E-05,-0.048807114,0.013479187,10.36165942,1,-0.417246354,0.240054071,-0.991207314,-0.623013927,1.18174972,6.36E-09,-1.60E-05,4.05E-09
0,0,0,0,0,0,4.94E-05,0.002866959,2.95E-07,0.999995889,0.000314718,0.000514587,0.000171406,-0.059931416,-0.000525195,9.255209445,1,-0.417246414,0.240514057,-0.991207314,-0.623470167,-1.176600489,-3.35E-09,2.89E-05,1.03E-08
0,0,0,0,0,0,4.94E-05,0.002866675,2.95E-07,0.99999589,0.000290791,0.000327972,0.000254465,-0.034323947,-0.010365703,10.17985294,1,-0.417246358,0.239995181,-0.991207314,-0.624128918,0.794083326,3.11E-09,-3.25E-05,3.93E-09
0,0,0,0,0,0,4.94E-05,0.002866917,2.95E-07,0.999995889,1.35E-05,0.001060457,-0.00039399,-0.080944999,0.002999417,9.867150907,1,-0.417246346,0.240438719,-0.991207313,-0.620707555,0.128104201,6.93E-10,2.78E-05,8.62E-09
0,0,0,0,0,0,4.94E-05,0.002866774,2.95E-07,0.99999589,0.00019816,0.000477981,0.000257413,-0.0804376,0.031520136,9.50373305,1,-0.417246399,0.240176878,-0.991207313,-0.62373945,-0.646426149,-2.99E-09,-1.64E-05,7.66E-09
0,0,0,0,0,0,4.94E-05,0.002866798,2.95E-07,0.99999589,-0.00032422,0.000746539,-2.92E-05,-0.082076502,0.021161368,10.26062514,1,-0.417246328,0.240220836,-0.991207313,-0.622443805,0.966868369,3.98E-09,2.76E-06,6.41E-09
0,0,0,0,0,0,4.94E-05,0.002867002,2.95E-07,0.999995889,-0.00010092,0.000174021,-0.000247677,-0.026646932,-0.00462026,9.018039758,1,-0.417246439,0.240593229,-0.991207313,-0.625157472,-1.682476746,-6.18E-09,2.34E-05,1.13E-08
0,0,0,0,0,0,4.94E-05,0.00286681,2.96E-07,0.999995889,0.000351455,0.000829761,-0.000377057,-0.023032729,0.013019352,10.43929442,1,-0.417246379,0.240242646,-0.991207313,-0.62155412,1.347043645,3.30E-09,-2.20E-05,4.07E-09
0,0,0,0,0,0,4.94E-05,0.002867148,2.96E-07,0.999995889,0.000112127,0.000712858,0.000216001,-0.038923239,0.004212555,9.517185087,1,-0.417246445,0.240859683,-0.991207312,-0.622778923,-0.618417247,-3.64E-09,3.87E-05,1.06E-08
0,0,0,0,0,0,4.94E-05,0.002866954,2.96E-07,0.999995889,2.63E-05,0.000764105,-9.80E-05,-0.032915135,0.018241253,9.879642552,1,-0.417246479,0.240505438,-0.991207312,-0.622682784,0.154175384,-1.94E-09,-2.22E-05,5.89E-09
0,0,0,0,0,0,4.94E-05,0.002867142,2.96E-07,0.999995889,-0.000264108,0.00111975,0.000249793,-0.053680361,0.019261447,10.19959138,1,-0.417246468,0.240849522,-0.991207312,-0.620455993,0.836362904,6.57E-10,2.16E-05,8.76E-09
0,0,0,0,0,0,4.94E-05,0.002867228,2.96E-07,0.999995888,0.000278921,0.00042615,-0.000121709,-0.020979257,-0.002554846,9.139445504,1,-0.417246599,0.241006066,-0.991207312,-0.62403675,-1.423723558,-7.34E-09,9.82E-06,1.06E-08
0,0,0,0,0,0,4.94E-05,0.002867198,2.96E-07,0.999995888,0.000668972,0.000525911,0.000328293,-0.007143412,0.014192768,10.36218427,1,-0.417246559,0.240951989,-0.991207311,-0.621908861,1.182630743,2.26E-09,-3.39E-06,5.57E-09
0,0,0,0,0,0,4.94E-05,0.00286756,2.96E-07,0.999995887,0.00032181,0.000445194,-0.00030108,-0.052246672,0.022298068,9.263308869,1,-0.417246692,0.241612752,-0.991207311,-0.623473743,-1.159378191,-7.42E-09,4.14E-05,1.18E-08
0,0,0,0,0,0,4.94E-05,0.002867386,2.96E-07,0.999995888,0.000126363,0.000959772,0.000126966,-0.05184355,0.001803516,10.201888,1,-0.417246708,0.241294589,-0.991207311,-0.621556775,0.841199625,-9.31E-10,-2.00E-05,5.37E-09
0,0,0,0,0,0,4.94E-05,0.002867738,2.96E-07,0.999995887,-0.000157574,0.000580977,5.02E-05,-0.04581719,0.009984141,9.827664679,1,-0.417246767,0.241938711,-0.991207311,-0.623596261,0.04346545,-3.30E-09,4.04E-05,1.00E-08
0,0,0,0,0,0,4.94E-05,0.002867705,2.96E-07,0.999995887,0.000326294,0.000817479,-8.08E-05,-0.07698212,0.006010393,9.55517702,1,-0.417246892,0.241877358,-0.99120731,-0.622063245,-0.536940546,-6.95E-09,-3.85E-06,8.98E-09
0,0,0,0,0,0,4.94E-05,0.002867839,2.96E-07,0.999995887,0.000541917,0.000813592,-0.000161833,-0.088256672,0.011647682,10.24742595,1,-0.417246891,0.242121666,-0.99120731,-0.621477281,0.938811056,5.94E-11,1.53E-05,7.66E-09
0,0,0,0,0,0,4.94E-05,0.002868152,2.96E-07,0.999995886,0.000173865,0.000567758,0.000242502,-0.052032774,-0.017524606,8.993903756,1,-0.417247071,0.242694264,-0.99120731,-0.623391741,-1.733654078,-1.01E-08,3.59E-05,1.25E-08
0,0,0,0,0,0,4.94E-05,0.002867776,2.96E-07,0.999995887,0.00028973,0.000509372,0.000294388,-0.050557899,0.004917936,10.26568299,1,-0.417246991,0.242007353,-0.99120731,-0.623312845,0.977171284,4.44E-09,-4.31E-05,3.96E-09
0,0,0,0,0,0,4.94E-05,0.002867931,2.96E-07,0.999995886,-1.94E-05,0.000712289,-7.52E-05,-0.048545304,-0.002000566,10.2167662,1,-0.417246902,0.242290009,-0.99120731,-0.622980254,0.872879007,4.98E-09,1.77E-05,8.44E-09
0,0,0,0,0,0,4.94E-05,0.002868268,2.97E-07,0.999995885,0.000116586,0.000537514,-0.000257513,-0.063588995,-0.026155302,8.948001764,1,-0.417247072,0.242905266,-0.991207309,-0.623578457,-1.831292526,-9.47E-09,3.86E-05,1.24E-08
0,0,0,0,0,0,4.94E-05,0.002867918,2.97E-07,0.999995886,2.61E-05,0.00064933,-6.63E-05,-0.043248878,0.007517431,10.25790071,1,-0.417247009,0.242266207,-0.991207309,-0.62332692,0.960514965,3.50E-09,-4.01E-05,3.78E-09
0,0,0,0,0,0,4.94E-05,0.002868097,2.97E-07,0.999995886,6.04E-05,0.00062745,0.000146557,-0.083743323,-0.000671534,10.16873725,1,-0.417246943,0.242593484,-0.991207309,-0.623360112,0.77098968,3.69E-09,2.05E-05,8.23E-09
0,0,0,0,0,0,4.94E-05,0.002868173,2.97E-07,0.999995886,6.58E-05,0.000482474,-0.000316515,-0.06038191,0.011505923,8.802965463,1,-0.417247051,0.242731768,-0.991207309,-0.623723886,-2.14055643,-6.02E-09,8.67E-06,1.09E-08
0,0,0,0,0,0,4.94E-05,0.002867773,2.97E-07,0.999995887,0.000254241,0.000562122,-8.39E-05,-0.057608531,-0.003582554,10.52059004,1,-0.417246868,0.242002105,-0.991207308,-0.62349455,1.520598786,1.02E-08,-4.58E-05,2.01E-09
0,0,0,0,0,0,4.94E-05,0.002867977,2.97E-07,0.999995886,0.000219135,0.001197574,-2.68E-05,-0.041792111,0.008284551,10.10216172,1,-0.417246782,0.242375009,-0.991207308,-0.620234272,0.628534235,4.81E-09,2.34E-05,7.80E-09
0,0,0,0,0,0,4.94E-05,0.002868078,2.97E-07,0.999995886,0.000131102,0.000223181,-7.76E-05,-0.055336496,0.019175223,8.776105534,1,-0.417246905,0.242559285,-0.991207308,-0.625425196,-2.197851772,-6.88E-09,1.16E-05,1.05E-08
0,0,0,0,0,0,4.94E-05,0.002867705,2.97E-07,0.999995887,5.08E-05,0.000591299,-5.44E-05,-0.050428086,0.003576784,10.51017443,1,-0.417246748,0.241876746,-0.991207308,-0.623640605,1.498318631,8.79E-09,-4.28E-05,1.69E-09
0,0,0,0,0,0,4.94E-05,0.002867933,2.97E-07,0.999995886,-1.96E-06,0.000991368,-0.000166085,-0.06421555,5.33E-05,9.817822732,1,-0.417246687,0.242293266,-0.991207308,-0.621398777,0.022695614,3.40E-09,2.61E-05,7.60E-09
0,0,0,0,0,0,4.94E-05,0.002867776,2.97E-07,0.999995887,0.000240771,0.000128549,0.000181245,-0.045468234,0.007996663,9.506816998,1,-0.417246716,0.242007979,-0.991207308,-0.625110601,-0.640450495,-1.65E-09,-1.79E-05,6.50E-09
0,0,0,0,0,0,4.94E-05,0.002867788,2.97E-07,0.999995887,0.000232581,0.000891408,0.000241062,-0.090236624,-0.009953803,10.2912656,1,-0.41724663,0.242029359,-0.991207307,-0.621688684,1.03228861,4.80E-09,1.34E-06,5.19E-09
0,0,0,0,0,0,4.94E-05,0.002867979,2.97E-07,0.999995886,0.000238687,0.000752127,0.000134423,-0.079273012,0.002959154,9.03022114,1,-0.417246729,0.242378912,-0.991207307,-0.622520328,-1.655854731,-5.52E-09,2.19E-05,1.00E-08
0,0,0,0,0,0,4.94E-05,0.002867481,2.97E-07,0.999995888,0.000123836,0.00085547,2.75E-05,-0.029464656,0.00500132,10.29173914,1,-0.41724657,0.24146912,-0.991207307,-0.622167721,1.032536983,8.90E-09,-5.71E-05,1.67E-09
0,0,0,0,0,0,4.94E-05,0.002867514,2.97E-07,0.999995887,0.00017341,0.001008355,-0.000113115,-0.039711077,0.017872335,10.14736679,1,-0.417246401,0.24152869,-0.991207307,-0.621266176,0.724900695,9.40E-09,3.74E-06,6.32E-09
0,0,0,0,0,0,4.94E-05,0.002867729,2.97E-07,0.999995887,0.000810105,0.000369898,0.000111207,-0.050832675,0.048054773,8.988798439,1,-0.417246492,0.241920817,-0.991207307,-0.621988847,-1.744313578,-5.07E-09,2.46E-05,1.04E-08
0,0,0,0,0,0,4.94E-05,0.002867257,2.97E-07,0.999995888,-8.34E-05,0.000564444,0.00015741,-0.033818622,0.019513482,10.24884822,1,-0.417246351,0.241058651,-0.991207307,-0.623662989,0.941177064,7.86E-09,-5.41E-05,2.09E-09
0,0,0,0,0,0,4.94E-05,0.002867314,2.97E-07,0.999995888,0.000325266,0.000833484,-0.000242897,-0.057931639,-0.005473993,10.18944456,1,-0.417246208,0.241162904,-0.991207306,-0.621826619,0.814748321,8.01E-09,6.54E-06,6.77E-09
0,0,0,0,0,0,4.94E-05,0.00286727,2.98E-07,0.999995888,0.000173303,0.000290176,-0.000213255,-0.086833015,-0.00530581,9.127032333,1,-0.417246238,0.241083323,-0.991207306,-0.624716127,-1.449351726,-1.68E-09,-4.99E-06,8.68E-09
0,0,0,0,0,0,4.94E-05,0.002867112,2.98E-07,0.999995889,0.00059014,0.000817412,0.000284015,-0.078134311,-0.012574386,10.34859736,1,-0.417246108,0.240794868,-0.991207306,-0.621167398,1.154288053,7.23E-09,-1.81E-05,3.71E-09
0,0,0,0,0,0,4.94E-05,0.002867346,2.98E-07,0.999995888,-0.000183586,0.000558705,-0.00018906,-0.075453672,0.014340265,9.239711891,1,-0.417246157,0.241221222,-0.991207306,-0.623521341,-1.209368173,-2.71E-09,2.67E-05,1.00E-08
0,0,0,0,0,0,4.94E-05,0.002866823,2.98E-07,0.999995889,2.68E-05,0.000454084,-7.80E-05,-0.061769189,-0.00114852,9.953245623,1,-0.417246036,0.240266352,-0.991207306,-0.62437715,0.31132304,6.76E-09,-5.99E-05,2.88E-09
0,0,0,0,0,0,4.94E-05,0.002866684,2.98E-07,0.99999589,3.43E-05,0.000834156,2.60E-06,-0.048810636,-0.02094467,10.25279314,1,-0.417245801,0.240012627,-0.991207305,-0.622331841,0.949720763,1.31E-08,-1.59E-05,5.67E-09
0,0,0,0,0,0,4.94E-05,0.00286694,2.98E-07,0.999995889,-0.000167817,0.000455557,-1.86E-05,-0.054587307,-0.017399692,9.223127733,1,-0.417245833,0.240480584,-0.991207305,-0.624243901,-1.245019943,-1.79E-09,2.94E-05,1.02E-08
0,0,0,0,0,0,4.94E-05,0.002866444,2.98E-07,0.999995891,3.81E-05,0.000451809,-0.000103948,-0.046036324,0.001198643,9.948252247,1,-0.417245728,0.239573484,-0.991207305,-0.624357113,0.30049771,5.84E-09,-5.69E-05,2.96E-09
0,0,0,0,0,0,4.94E-05,0.00286633,2.98E-07,0.999995891,-0.00011401,0.000788141,-0.000126299,-0.054455428,0.003648448,10.22834712,1,-0.417245518,0.239365258,-0.991207305,-0.622488348,0.897628931,1.17E-08,-1.31E-05,5.70E-09
0,0,0,0,0,0,4.94E-05,0.002866398,2.98E-07,0.999995891,-0.000334021,0.000297683,-3.08E-06,-0.059947183,0.01379039,9.000162845,1,-0.417245525,0.239490232,-0.991207305,-0.624454325,-1.720221401,-3.81E-10,7.84E-06,9.49E-09
0,0,0,0,0,0,4.94E-05,0.002866072,2.98E-07,0.999995892,0.000268719,0.000967123,-8.17E-05,-0.063794285,-0.037087995,10.46266522,1,-0.417245377,0.238894636,-0.991207305,-0.621388389,1.397343869,8.27E-09,-3.74E-05,2.16E-09
0,0,0,0,0,0,4.94E-05,0.002866276,2.98E-07,0.999995891,-0.000101993,0.000105715,3.86E-05,-0.079762182,-0.011800503,9.51817241,1,-0.417245359,0.239266742,-0.991207304,-0.626073442,-0.615756359,1.01E-09,2.33E-05,8.50E-09
0,0,0,0,0,0,4.94E-05,0.002865948,2.98E-07,0.999995892,-0.000116354,0.000656909,-0.000199137,-0.044969165,0.005850222,9.860807527,1,-0.417245312,0.23866774,-0.991207304,-0.62309138,0.114096289,2.59E-09,-3.76E-05,3.76E-09
0,0,0,0,0,0,4.94E-05,0.002866002,2.98E-07,0.999995892,9.65E-05,0.000279237,6.95E-07,-0.03502306,0.011777744,10.22316627,1,-0.41724522,0.238766888,-0.991207304,-0.625286878,0.886417424,5.13E-09,6.22E-06,6.59E-09
0,0,0,0,0,0,4.94E-05,0.002865954,2.98E-07,0.999995892,2.23E-05,0.000256282,0.000136043,-0.035773082,0.012759825,9.128366985,1,-0.417245272,0.238678446,-0.991207304,-0.625311243,-1.447222107,-2.90E-09,-5.55E-06,8.42E-09
0,0,0,0,0,0,4.94E-05,0.00286579,2.98E-07,0.999995892,9.23E-05,0.00093393,4.79E-05,-0.071137597,-0.003253815,10.33873067,1,-0.417245153,0.238379431,-0.991207304,-0.62175754,1.13313404,6.67E-09,-1.88E-05,3.46E-09
0,0,0,0,0,0,4.94E-05,0.002866018,2.98E-07,0.999995892,7.55E-05,0.000912424,-0.00024018,-0.067491161,-0.008906301,9.369924504,1,-0.417245208,0.23879533,-0.991207303,-0.621720155,-0.931961268,-3.05E-09,2.61E-05,9.79E-09
0,0,0,0,0,0,4.94E-05,0.00286571,2.98E-07,0.999995893,0.000300042,0.000685722,-7.32E-05,-0.033262021,0.010373429,9.907909964,1,-0.417245147,0.238232388,-0.991207303,-0.622785465,0.214407796,3.40E-09,-3.53E-05,3.46E-09
0,0,0,0,0,0,4.94E-05,0.002865928,2.99E-07,0.999995892,4.85E-05,0.000770672,-0.000209585,-0.041803748,-0.013660177,9.848842605,1,-0.417245129,0.238631894,-0.991207303,-0.622522129,0.08857899,9.80E-10,2.51E-05,8.22E-09
0,0,0,0,0,0,4.94E-05,0.002865761,2.99E-07,0.999995892,-0.000141496,0.000396427,-0.000112767,-0.048487933,0.007419407,9.514455453,1,-0.417245178,0.238326044,-0.991207303,-0.624518229,-0.624137831,-2.71E-09,-1.92E-05,7.34E-09
0,0,0,0,0,0,4.94E-05,0.002865761,2.99E-07,0.999995892,0.000193741,0.000817149,-0.000173958,-0.062175359,0.029571,10.27131555,1,-0.417245101,0.238326023,-0.991207303,-0.622207132,0.989401578,4.25E-09,-1.29E-09,6.16E-09
0,0,0,0,0,0,4.94E-05,0.002865941,2.99E-07,0.999995892,0.000243458,0.000721659,9.43E-06,-0.085448869,-0.000651902,9.006482363,1,-0.417245207,0.238654466,-0.991207302,-0.622732792,-1.706334774,-5.91E-09,2.06E-05,1.11E-08
0,0,0,0,0,0,4.94E-05,0.002865725,2.99E-07,0.999995893,0.000136333,0.000989959,-0.000162209,-0.044037099,0.005795528,10.44843236,1,-0.417245144,0.238259958,-0.991207302,-0.621359355,1.366651767,3.56E-09,-2.47E-05,3.94E-09
0,0,0,0,0,0,4.94E-05,0.002866039,2.99E-07,0.999995892,0.000332647,0.000544272,0.000145402,-0.001881638,0.031094079,9.520295446,1,-0.417245204,0.238833104,-0.991207302,-0.623321374,-0.611850244,-3.39E-09,3.60E-05,1.05E-08
0,0,0,0,0,0,4.94E-05,0.002865821,2.99E-07,0.999995892,0.000346184,0.000680811,0.000239371,-0.057333098,-0.006757216,9.867069467,1,-0.417245235,0.238434988,-0.991207302,-0.622520636,0.127581908,-1.70E-09,-2.50E-05,5.82E-09
0,0,0,0,0,0,4.94E-05,0.002865985,2.99E-07,0.999995892,-0.000111776,0.001076494,3.67E-05,-0.055970424,0.000511709,10.17062869,1,-0.417245219,0.238735232,-0.991207302,-0.620973024,0.774614693,8.92E-10,1.88E-05,8.71E-09
0,0,0,0,0,0,4.94E-05,0.002866047,2.99E-07,0.999995892,0.000516124,0.000589245,-0.000222327,-0.047372236,0.000693833,9.135544472,1,-0.417245346,0.238847962,-0.991207301,-0.622444714,-1.431829189,-7.11E-09,7.07E-06,1.05E-08
0,0,0,0,0,0,4.94E-05,0.002865993,2.99E-07,0.999995892,-2.56E-06,0.001072852,-6.59E-05,-0.021036716,-0.026927172,10.32290361,1,-0.417245302,0.238750099,-0.991207301,-0.621016988,1.09899499,2.48E-09,-6.14E-06,5.49E-09
0,0,0,0,0,0,4.94E-05,0.002866331,2.99E-07,0.999995891,-4.48E-05,0.000498094,-4.53E-05,-0.047884623,0.003310477,9.258935479,1,-0.417245431,0.239367107,-0.991207301,-0.624154558,-1.168806547,-7.21E-09,3.87E-05,1.17E-08
0,0,0,0,0,0,4.94E-05,0.002866133,2.99E-07,0.999995891,0.000105954,0.000649438,-2.64E-06,-0.048278864,-0.010271992,10.17471003,1,-0.417245444,0.239005209,-0.991207301,-0.623300606,0.783241354,-7.24E-10,-2.27E-05,5.23E-09
0,0,0,0,0,0,4.94E-05,0.002866461,2.99E-07,0.99999589,0.000183539,0.000628977,-8.44E-05,-0.060677824,-0.019931516,9.820553203,1,-0.4172455,0.239605629,-0.9912073,-0.623286395,0.028510901,-3.11E-09,3.77E-05,9.82E-09
0,0,0,0,0,0,4.94E-05,0.002866404,2.99E-07,0.999995891,0.000284537,0.000502618,-0.000261722,-0.064146355,-0.02639263,9.507932741,1,-0.417245621,0.239500596,-0.9912073,-0.623431693,-0.637771803,-6.75E-09,-6.59E-06,8.76E-09
0,0,0,0,0,0,4.94E-05,0.002866514,2.99E-07,0.99999589,0.000160499,0.001105318,0.000244984,-0.058824001,-0.004850674,10.23789033,1,-0.417245616,0.239701253,-0.9912073,-0.620641262,0.918023459,2.45E-10,1.26E-05,7.39E-09
0,0,0,0,0,0,4.94E-05,0.002866803,3.00E-07,0.999995889,0.000411732,0.00083707,-1.30E-05,-0.051722375,-0.00238602,8.998573301,1,-0.417245793,0.240230229,-0.9912073,-0.621794563,-1.72374021,-9.88E-09,3.32E-05,1.21E-08
0,0,0,0,0,0,4.94E-05,0.002866697,3.00E-07,0.99999589,-0.00027967,0.000940824,-0.000101653,-0.019906318,-0.00063815,10.45996799,1,-0.4172458,0.240036135,-0.9912073,-0.621499714,1.391080207,-3.64E-10,-1.22E-05,4.85E-09
0,0,0,0,0,0,4.94E-05,0.00286712,3.00E-07,0.999995889,0.000286661,0.000732038,0.000129622,-0.075693657,0.013850926,9.520429867,1,-0.41724593,0.240809525,-0.991207299,-0.622540493,-0.611009469,-7.27E-09,4.85E-05,1.13E-08
0,0,0,0,0,0,4.94E-05,0.002867012,3.00E-07,0.999995889,-0.0001906,0.000702657,-0.000212742,-0.086933463,-0.027702553,9.888131592,1,-0.417246029,0.240611548,-0.991207299,-0.622750225,0.173015065,-5.53E-09,-1.24E-05,6.55E-09
0,0,0,0,0,0,4.94E-05,0.002867286,3.00E-07,0.999995888,-0.000170685,0.000761598,0.00034395,-0.068206097,0.034928769,10.20074343,1,-0.417246081,0.241111776,-0.991207299,-0.622232957,0.839092259,-2.90E-09,3.14E-05,9.39E-09
0,0,0,0,0,0,4.94E-05,0.002867457,3.00E-07,0.999995888,-0.000151295,0.000310385,-0.000191658,-0.041993037,0.019862512,9.114057418,1,-0.417246276,0.241424355,-0.991207298,-0.624741996,-1.477640345,-1.09E-08,1.96E-05,1.12E-08
0,0,0,0,0,0,4.94E-05,0.002867513,3.00E-07,0.999995887,-3.18E-05,0.000562049,8.86E-05,-0.056702282,0.025666523,10.36188547,1,-0.417246298,0.241526208,-0.991207298,-0.623783564,1.182366325,-1.23E-09,6.39E-06,6.19E-09
0,0,0,0,0,0,4.94E-05,0.00286796,3.00E-07,0.999995886,-0.000134353,0.00052563,-7.86E-05,-0.060388882,-0.020359422,9.21592643,1,-0.417246492,0.242342769,-0.991207298,-0.623902319,-1.260279825,-1.09E-08,5.12E-05,1.25E-08
0,0,0,0,0,0,4.94E-05,0.002867871,3.00E-07,0.999995886,9.06E-05,0.000952747,-0.000147032,-0.088288024,-0.029516673,10.16849248,1,-0.41724657,0.242180321,-0.991207298,-0.62160099,0.770641168,-4.35E-09,-1.02E-05,6.08E-09
0,0,0,0,0,0,4.94E-05,0.002868308,3.00E-07,0.999995885,0.000472788,0.001025925,0.000131208,-0.065733737,0.024027872,9.853592747,1,-0.41724669,0.242980024,-0.991207297,-0.620675465,0.099024857,-6.69E-09,5.02E-05,1.08E-08
0,0,0,0,0,0,4.94E-05,0.002868285,3.00E-07,0.999995885,0.000132199,0.000166848,0.000312581,-0.057450026,-0.018139605,9.248285456,1,-0.417246867,0.242937178,-0.991207297,-0.624833695,-1.191354977,-9.89E-09,-2.69E-06,1.10E-08
0,0,0,0,0,0,4.94E-05,0.00286814,3.00E-07,0.999995886,-0.000252765,0.001066494,-0.000154683,-0.025174934,0.011850024,10.41376933,1,-0.417246761,0.242671402,-0.991207297,-0.620841563,1.292642327,5.94E-09,-1.67E-05,5.00E-09
0,0,0,0,0,0,4.94E-05,0.002868599,3.00E-07,0.999995884,0.00011253,0.000841993,8.86E-05,-0.055402511,0.010558938,9.793984588,1,-0.417246831,0.243510871,-0.991207297,-0.622226538,-0.028219085,-3.93E-09,5.27E-05,1.09E-08
0,0,0,0,0,0,4.94E-05,0.002868601,3.00E-07,0.999995884,0.000333128,0.000508254,-0.000290297,-0.074769956,0.015684677,9.204803709,1,-0.417247011,0.243513796,-0.991207296,-0.623215988,-1.28378282,-1.00E-08,1.83E-07,1.10E-08
0,0,0,0,0,0,4.94E-05,0.002868481,3.01E-07,0.999995885,-0.000114911,0.000662122,-0.000247502,-0.055858806,-0.012767039,10.39731474,1,-0.417246924,0.243294542,-0.991207296,-0.622982217,1.257825159,4.85E-09,-1.38E-05,4.95E-09
0,0,0,0,0,0,4.94E-05,0.002868895,3.01E-07,0.999995883,0.000225311,0.000834138,0.000191418,-0.055067756,0.011342635,9.51871277,1,-0.417247009,0.244051385,-0.991207296,-0.622057295,-0.614978556,-4.74E-09,4.75E-05,1.12E-08
0,0,0,0,0,0,4.94E-05,0.002868632,3.01E-07,0.999995884,-0.000131159,0.00056251,-0.000265481,-0.006085573,-0.011101356,9.657799862,1,-0.417247057,0.243571322,-0.991207296,-0.623422989,-0.318837849,-2.69E-09,-3.01E-05,6.98E-09
0,0,0,0,0,0,4.94E-05,0.002868535,3.01E-07,0.999995885,-1.07E-05,0.000584903,-7.56E-05,-0.066022858,0.021937208,10.33464981,1,-0.4172469,0.243394323,-0.991207296,-0.623674002,1.124411708,8.78E-09,-1.11E-05,5.43E-09
0,0,0,0,0,0,4.94E-05,0.002868974,3.01E-07,0.999995883,-3.55E-05,0.000732491,-0.000165689,-0.063786733,0.014363786,9.483090005,1,-0.417246983,0.244195772,-0.991207295,-0.622786699,-0.690785241,-4.62E-09,5.03E-05,1.07E-08
0,0,0,0,0,0,4.94E-05,0.002868737,3.01E-07,0.999995884,0.000222975,0.00035844,2.05E-05,-0.048679931,0.014582414,9.616052429,1,-0.417247051,0.243763064,-0.991207295,-0.624590177,-0.407557823,-3.80E-09,-2.71E-05,6.58E-09
0,0,0,0,0,0,4.94E-05,0.002868665,3.01E-07,0.999995884,0.000401364,0.00101708,0.000106521,-0.065627177,-0.008066074,10.32422479,1,-0.417246918,0.243631365,-0.991207295,-0.620887103,1.10214197,7.40E-09,-8.26E-06,5.09E-09
0,0,0,0,0,0,4.94E-05,0.002868988,3.01E-07,0.999995883,-3.17E-05,0.000518339,3.94E-05,-0.045145701,-0.002409544,9.240492999,1,-0.417246999,0.244220637,-0.991207295,-0.624052412,-1.208147847,-4.53E-09,3.70E-05,1.04E-08
0,0,0,0,0,0,4.94E-05,0.002868556,3.01E-07,0.999995884,-0.000364943,0.000754149,0.000110341,-0.073896176,-0.026168585,9.949355536,1,-0.417246926,0.243431881,-0.991207295,-0.622276084,0.30328057,4.09E-09,-4.95E-05,3.04E-09
0,0,0,0,0,0,4.94E-05,0.002868508,3.01E-07,0.999995885,-0.000218354,0.000574627,-0.000163751,-0.053801712,0.015926386,10.25899609,1,-0.417246744,0.243344639,-0.991207294,-0.623420456,0.962976729,1.02E-08,-5.47E-06,5.73E-09
0,0,0,0,0,0,4.94E-05,0.002868855,3.01E-07,0.999995884,0.000286699,0.000573673,7.64E-05,-0.063252521,0.006000503,9.214456635,1,-0.41724683,0.243978677,-0.991207294,-0.62336726,-1.263415579,-4.83E-09,3.98E-05,1.02E-08
0,0,0,0,0,0,4.94E-05,0.002868449,3.01E-07,0.999995885,0.000349433,0.000407211,0.000200408,-0.028303806,-0.045072806,9.954594903,1,-0.41724678,0.243237632,-0.991207294,-0.623767577,0.31409374,2.82E-09,-4.65E-05,3.01E-09
0,0,0,0,0,0,4.94E-05,0.002868426,3.01E-07,0.999995885,0.000272629,0.001123689,-4.84E-05,-0.044444966,0.016241458,10.23567034,1,-0.417246624,0.243195126,-0.991207294,-0.620565444,0.913161819,8.72E-09,-2.67E-06,5.83E-09
0,0,0,0,0,0,4.94E-05,0.002868585,3.01E-07,0.999995884,0.000135326,0.000560804,-0.000201639,-0.069201516,-0.001595586,8.969548377,1,-0.417246683,0.243485561,-0.991207294,-0.623557565,-1.785357713,-3.32E-09,1.82E-05,9.76E-09
0,0,0,0,0,0,4.94E-05,0.002868056,3.01E-07,0.999995886,0.000174037,0.000616766,-0.000372252,-0.061888114,0.027075471,10.23190398,1,-0.417246498,0.24251942,-0.991207294,-0.622845404,0.905375653,1.03E-08,-6.06E-05,1.36E-09
0,0,0,0,0,0,4.94E-05,0.002868058,3.01E-07,0.999995886,-0.000142499,0.000812781,6.20E-05,-0.05357863,0.001455052,10.20248716,1,-0.417246309,0.242522896,-0.991207293,-0.62237215,0.842495768,1.06E-08,2.18E-07,5.95E-09
0,0,0,0,0,0,4.94E-05,0.002868242,3.02E-07,0.999995885,0.000105091,0.000192153,-3.69E-05,-0.062422782,-0.009226423,8.97383675,1,-0.417246381,0.242858774,-0.991207293,-0.625688763,-1.776313081,-4.01E-09,2.11E-05,9.99E-09
0,0,0,0,0,0,4.94E-05,0.002867739,3.02E-07,0.999995887,0.00047311,0.0003393,0.000204372,-0.038434228,-0.011463937,10.25199325,1,-0.417246221,0.241940417,-0.991207293,-0.623525216,0.947889682,8.90E-09,-5.76E-05,1.63E-09
0,0,0,0,0,0,4.94E-05,0.002867766,3.02E-07,0.999995887,-0.000268553,0.000997904,-0.000490205,-0.098009912,0.015530142,10.1970403,1,-0.417246059,0.241988311,-0.991207293,-0.620639513,0.831614375,9.04E-09,3.00E-06,6.26E-09
0,0,0,0,0,0,4.94E-05,0.002867691,3.02E-07,0.999995887,0.000198438,0.000541599,-5.30E-05,-0.085635202,0.037525364,9.135124709,1,-0.417246071,0.241852306,-0.991207293,-0.623732235,-1.431965969,-6.54E-10,-8.53E-06,8.15E-09
0,0,0,0,0,0,4.94E-05,0.002867502,3.02E-07,0.999995887,0.000262755,0.000435626,0.000204342,-0.037045733,-0.007415349,10.38716723,1,-0.417245923,0.241507407,-0.991207293,-0.623902067,1.236004728,8.26E-09,-2.16E-05,3.18E-09
0,0,0,0,0,0,4.94E-05,0.002867705,3.02E-07,0.999995887,-0.000103433,0.000633859,-0.000245554,-0.045290787,0.009833371,9.260091103,1,-0.417245953,0.241877309,-0.991207292,-0.623138694,-1.166361209,-1.69E-09,2.32E-05,9.47E-09
0,0,0,0,0,0,4.94E-05,0.002867151,3.02E-07,0.999995888,-0.000115224,0.000382524,-0.000311637,-0.038434924,-0.000154399,9.943836795,1,-0.417245814,0.240865991,-0.991207292,-0.624129772,0.291016896,7.78E-09,-6.34E-05,2.37E-09
0,0,0,0,0,0,4.94E-05,0.002866982,3.02E-07,0.999995889,-0.000170013,0.000950345,-7.27E-06,-0.0428145,-0.035527412,10.24440911,1,-0.417245561,0.240555845,-0.991207292,-0.621616407,0.931878186,1.41E-08,-1.95E-05,5.18E-09
0,0,0,0,0,0,4.94E-05,0.002867207,3.02E-07,0.999995888,0.000176117,0.000460947,-0.000402553,-0.033121824,-0.02384843,9.23610651,1,-0.417245575,0.240967427,-0.991207292,-0.623416801,-1.217541575,-7.98E-10,2.58E-05,9.72E-09
0,0,0,0,0,0,4.94E-05,0.002866679,3.02E-07,0.99999589,8.89E-05,0.000309901,8.64E-05,-0.061151152,-0.004541069,9.977024772,1,-0.417245453,0.240003971,-0.991207292,-0.625076934,0.362003461,6.83E-09,-6.04E-05,2.55E-09
0,0,0,0,0,0,4.94E-05,0.002866535,3.02E-07,0.99999589,7.94E-05,0.000725234,0.000244082,-0.027065125,0.017511741,10.24237974,1,-0.417245225,0.239739432,-0.991207292,-0.622690978,0.927338506,1.27E-08,-1.66E-05,5.33E-09
0,0,0,0,0,0,4.94E-05,0.002866572,3.02E-07,0.99999589,0.000229752,7.21E-05,0.000132748,-0.0593531,0.02319839,9.01858906,1,-0.417245215,0.239808139,-0.991207291,-0.625399181,-1.680912391,5.83E-10,4.31E-06,9.15E-09
0,0,0,0,0,0,4.94E-05,0.002866215,3.02E-07,0.999995891,4.45E-05,0.000495779,9.42E-05,-0.065132656,-0.009266592,10.43071427,1,-0.41724505,0.23915631,-0.991207291,-0.624130094,1.329125022,9.22E-09,-4.09E-05,1.87E-09
0,0,0,0,0,0,4.94E-05,0.002866388,3.02E-07,0.999995891,-4.06E-05,0.000898965,-5.93E-05,-0.064559883,-0.005029687,9.519381919,1,-0.417245015,0.239472233,-0.991207291,-0.621964975,-0.613436669,1.95E-09,1.98E-05,8.23E-09
0,0,0,0,0,0,4.94E-05,0.00286603,3.02E-07,0.999995892,4.81E-05,0.000486909,-0.000125694,-0.064715081,-0.000759138,9.872439269,1,-0.417244952,0.238817079,-0.991207291,-0.624138011,0.139120335,3.52E-09,-4.11E-05,3.51E-09
0,0,0,0,0,0,4.94E-05,0.002866053,3.02E-07,0.999995892,-0.000289526,0.000794315,8.33E-05,-0.036270864,0.016189547,10.22849424,1,-0.417244843,0.238860119,-0.991207291,-0.622251518,0.897796542,6.05E-09,2.70E-06,6.36E-09
0,0,0,0,0,0,4.94E-05,0.002865974,3.02E-07,0.999995892,-4.41E-05,0.000636206,0.000604895,-0.068418935,-0.001369541,9.104851374,1,-0.417244879,0.238715611,-0.991207291,-0.622090178,-1.496968045,-1.99E-09,-9.06E-06,8.19E-09
0,0,0,0,0,0,4.94E-05,0.00286578,3.02E-07,0.999995892,0.000177187,0.000804351,5.40E-05,-0.043759273,0.002605911,10.36230989,1,-0.417244743,0.238360567,-0.991207291,-0.62238368,1.183070191,7.57E-09,-2.23E-05,3.23E-09
0,0,0,0,0,0,4.94E-05,0.002865977,3.03E-07,0.999995892,9.93E-05,0.000576133,-0.000168964,-0.03674545,0.023817848,9.262853833,1,-0.417244782,0.238720484,-0.99120729,-0.623571647,-1.160498782,-2.16E-09,2.26E-05,9.55E-09
0,0,0,0,0,0,4.94E-05,0.002865638,3.03E-07,0.999995893,-9.18E-05,0.000261125,3.95E-05,0.003824377,-0.005562956,10.1702119,1,-0.417244705,0.238101591,-0.99120729,-0.625373829,0.773402741,4.28E-09,-3.88E-05,3.21E-09
0,0,0,0,0,0,4.94E-05,0.002865826,3.03E-07,0.999995892,0.000474733,0.000408283,-0.000266854,-0.071994582,-0.00712926,9.82595523,1,-0.417244672,0.238445194,-0.99120729,-0.623176708,0.040150851,1.84E-09,2.16E-05,7.95E-09
0,0,0,0,0,0,4.94E-05,0.002865628,3.03E-07,0.999995893,-0.000161575,0.000532335,-9.11E-05,-0.063424877,0.039682063,9.551611515,1,-0.417244706,0.238083474,-0.99120729,-0.62381726,-0.544581226,-1.85E-09,-2.27E-05,7.05E-09
0,0,0,0,0,0,4.94E-05,0.002865598,3.03E-07,0.999995893,0.000206721,0.000658068,-0.00039914,-0.078140036,-0.028478153,10.26410304,1,-0.417244614,0.238027626,-0.99120729,-0.622539655,0.974253814,5.09E-09,-3.50E-06,5.85E-09
0,0,0,0,0,0,4.94E-05,0.002865747,3.03E-07,0.999995893,0.000431899,0.000675872,0.000127667,-0.035730956,-0.038814633,8.982942327,1,-0.417244705,0.238300283,-0.991207289,-0.622456116,-1.757046375,-5.08E-09,1.71E-05,1.07E-08
0,0,0,0,0,0,4.94E-05,0.0028655,3.03E-07,0.999995893,0.000303929,0.000829614,0.000191305,-0.056731298,-0.003455354,10.45118734,1,-0.417244627,0.237850024,-0.991207289,-0.621953063,1.372652448,4.38E-09,-2.82E-05,3.58E-09
0,0,0,0,0,0,4.94E-05,0.002865784,3.03E-07,0.999995892,0.000368758,0.000490949,7.00E-05,-0.027169269,-0.019396586,9.526913309,1,-0.417244673,0.238367466,-0.991207289,-0.62351993,-0.597727622,-2.58E-09,3.25E-05,1.01E-08
0,0,0,0,0,0,4.94E-05,0.002865535,3.03E-07,0.999995893,5.97E-05,0.00065144,-0.000127815,-0.041998075,0.023517134,9.867030888,1,-0.417244689,0.237913677,-0.991207289,-0.623254011,0.127389949,-8.97E-10,-2.85E-05,5.43E-09
0,0,0,0,0,0,4.94E-05,0.002865669,3.03E-07,0.999995893,0.000444788,0.000747702,0.00028229,-0.060624668,-0.007205133,10.22465512,1,-0.417244659,0.23815829,-0.991207289,-0.621894768,0.889837235,1.68E-09,1.53E-05,8.31E-09
0,0,0,0,0,0,4.94E-05,0.0028657,3.03E-07,0.999995893,0.000479758,0.00059896,5.21E-06,-0.04590726,0.018936164,9.108895425,1,-0.417244772,0.238215427,-0.991207288,-0.622701279,-1.488607414,-6.33E-09,3.58E-06,1.01E-08
0,0,0,0,0,0,4.94E-05,0.002865616,3.03E-07,0.999995893,-4.67E-06,0.00069675,-0.000105852,-0.068369183,0.021375601,10.34247199,1,-0.417244714,0.238062008,-0.991207288,-0.6230446,1.141115008,3.25E-09,-9.62E-06,5.09E-09
0,0,0,0,0,0,4.94E-05,0.002865924,3.03E-07,0.999995892,0.000232986,0.000498736,0.000125851,-0.046011431,-0.013716212,9.24167762,1,-0.41724483,0.238623506,-0.991207288,-0.623812022,-1.20559262,-6.45E-09,3.52E-05,1.13E-08
0,0,0,0,0,0,4.94E-05,0.002865695,3.03E-07,0.999995893,0.000487357,0.000768075,0.000204307,-0.021586,-0.00191843,10.14634296,1,-0.417244829,0.238206127,-0.991207288,-0.621798025,0.722568453,2.63E-11,-2.62E-05,4.84E-09
0,0,0,0,0,0,4.94E-05,0.002865994,3.03E-07,0.999995892,0.000361475,0.000861567,-0.000271917,-0.054132678,-0.008941767,9.859194598,1,-0.417244872,0.238751113,-0.991207287,-0.621574619,0.110761329,-2.37E-09,3.42E-05,9.44E-09
0,0,0,0,0,0,4.94E-05,0.002865906,3.04E-07,0.999995892,-5.07E-05,0.000627225,3.45E-05,-0.064883236,0.025537658,9.519884905,1,-0.417244979,0.238590676,-0.991207287,-0.623452983,-0.612289666,-6.02E-09,-1.01E-05,8.39E-09
0,0,0,0,0,0,4.94E-05,0.002865985,3.04E-07,0.999995892,5.75E-05,0.001195364,-0.000532802,-0.08456544,0.008145534,10.29234849,1,-0.417244962,0.23873597,-0.991207287,-0.619728965,1.034490767,9.66E-10,9.11E-06,7.04E-09
0,0,0,0,0,0,4.94E-05,0.002866245,3.04E-07,0.999995891,1.84E-06,0.000744304,4.33E-05,-0.097599972,-0.018184613,9.021675429,1,-0.417245126,0.239209623,-0.991207287,-0.622821073,-1.673649043,-9.17E-09,2.97E-05,1.18E-08
0,0,0,0,0,0,4.94E-05,0.002866108,3.04E-07,0.999995891,-0.000162011,0.000729778,-3.09E-06,-0.057600229,-0.004397432,10.44249221,1,-0.41724512,0.238960239,-0.991207286,-0.622810178,1.354129143,3.37E-10,-1.56E-05,4.52E-09
0,0,0,0,0,0,4.94E-05,0.002866501,3.04E-07,0.99999589,0.000166981,0.000277591,0.000311203,-0.034667594,0.00785032,9.521735886,1,-0.417245238,0.239678385,-0.991207286,-0.624444597,-0.608747024,-6.58E-09,4.50E-05,1.10E-08
0,0,0,0,0,0,4.94E-05,0.002866363,3.04E-07,0.999995891,-4.88E-05,0.000593356,0.000509983,-0.062067485,0.002131058,9.863130905,1,-0.417245325,0.239425192,-0.991207286,-0.622610929,0.119243285,-4.85E-09,-1.59E-05,6.24E-09
0,0,0,0,0,0,4.94E-05,0.002866606,3.04E-07,0.99999589,0.000157349,0.000509237,0.000311665,-0.045532609,-0.010375724,10.20080731,1,-0.417245365,0.239870246,-0.991207286,-0.623523037,0.838842774,-2.23E-09,2.79E-05,9.09E-09
0,0,0,0,0,0,4.94E-05,0.002866747,3.04E-07,0.99999589,0.000146732,0.000352668,-1.44E-05,-0.058037785,0.015378098,9.170324062,1,-0.417245548,0.240127687,-0.991207285,-0.624811435,-1.357536189,-1.02E-08,1.61E-05,1.09E-08
0,0,0,0,0,0,4.94E-05,0.002866773,3.04E-07,0.99999589,0.000225846,0.001098204,-0.00014955,-0.050966653,-0.001046733,10.37940192,1,-0.417245558,0.240174438,-0.991207285,-0.620708896,1.219572626,-5.76E-10,2.93E-06,5.89E-09
0,0,0,0,0,0,4.94E-05,0.00286719,3.04E-07,0.999995888,0.000680151,0.000549143,6.84E-05,-0.030300103,-0.022482237,9.231440422,1,-0.417245741,0.24093594,-0.991207285,-0.622101908,-1.227515644,-1.02E-08,4.78E-05,1.22E-08
0,0,0,0,0,0,4.94E-05,0.002867071,3.04E-07,0.999995889,0.000168506,0.000705996,3.98E-05,-0.063417634,-0.02358313,10.20048017,1,-0.417245808,0.240718461,-0.991207285,-0.622923223,0.838395904,-3.72E-09,-1.36E-05,5.77E-09
0,0,0,0,0,0,4.94E-05,0.002867478,3.04E-07,0.999995888,8.16E-05,0.000817124,-0.000113578,-0.078362014,-0.013663257,9.869212221,1,-0.417245917,0.241463178,-0.991207284,-0.622363971,0.132472686,-6.06E-09,4.67E-05,1.05E-08
0,0,0,0,0,0,4.94E-05,0.0028675,3.04E-07,0.999995887,0.000158784,0.000496763,-5.87E-06,-0.054105162,0.026109498,9.528129836,1,-0.41724609,0.241502359,-0.991207284,-0.624048246,-0.594855452,-9.68E-09,2.46E-06,9.50E-09
0,0,0,0,0,0,4.94E-05,0.002867688,3.04E-07,0.999995887,0.00019153,0.000803716,-0.000296457,-0.055904011,0.008287838,10.25421406,1,-0.417246137,0.241847125,-0.991207284,-0.622096644,0.952788297,-2.65E-09,2.16E-05,8.23E-09
0,0,0,0,0,0,4.94E-05,0.002868057,3.05E-07,0.999995886,-0.000210886,8.09E-05,-1.45E-05,-0.06705416,-0.002546541,9.05052387,1,-0.417246366,0.242520103,-0.991207284,-0.625665465,-1.612790068,-1.27E-08,4.22E-05,1.31E-08
0,0,0,0,0,0,4.94E-05,0.002868029,3.05E-07,0.999995886,0.000260665,0.000879339,-6.79E-05,-0.033035834,0.010048301,10.44916904,1,-0.417246423,0.242469926,-0.991207283,-0.621867265,1.368142446,-3.20E-09,-3.15E-06,5.86E-09
0,0,0,0,0,0,4.94E-05,0.002868531,3.05E-07,0.999995885,0.000279331,0.000768332,0.000155159,-0.090434852,0.008283463,9.558520332,1,-0.417246603,0.243387112,-0.991207283,-0.622346852,-0.529559461,-1.01E-08,5.75E-05,1.24E-08
0,0,0,0,0,0,4.94E-05,0.002868354,3.05E-07,0.999995885,4.21E-05,0.000456149,-0.000288908,-0.042997619,0.016651166,9.649173998,1,-0.417246726,0.243063508,-0.991207283,-0.623938541,-0.337007529,-6.83E-09,-2.03E-05,8.37E-09
0,0,0,0,0,0,4.94E-05,0.002868343,3.05E-07,0.999995885,0.000195619,0.000507535,0.000157235,-0.044817595,0.020666618,10.33827746,1,-0.417246634,0.243042196,-0.991207283,-0.623803681,1.131896304,5.11E-09,-1.34E-06,6.95E-09
0,0,0,0,0,0,4.94E-05,0.002868867,3.05E-07,0.999995884,0.000234935,0.001020926,0.000130989,-0.071485376,0.034739477,9.504987786,1,-0.41724678,0.243999635,-0.991207282,-0.621121684,-0.643880254,-8.14E-09,6.01E-05,1.24E-08
0,0,0,0,0,0,4.94E-05,0.002868715,3.05E-07,0.999995884,6.42E-05,0.000969493,-0.000117404,-0.048685866,-0.023706578,9.622644317,1,-0.41724691,0.24372292,-0.991207282,-0.621543977,-0.393468043,-7.26E-09,-1.74E-05,8.26E-09
0,0,0,0,0,0,4.94E-05,0.002868728,3.05E-07,0.999995884,-4.30E-05,0.000906424,2.79E-06,-0.016815531,-0.005217938,10.30041263,1,-0.417246839,0.243747343,-0.991207282,-0.621934225,1.050964908,3.97E-09,1.53E-06,6.77E-09
0,0,0,0,0,0,4.94E-05,0.002869137,3.05E-07,0.999995883,0.000206482,0.000877467,0.000270756,-0.059628159,-0.027034862,9.227624284,1,-0.417246981,0.244492823,-0.991207282,-0.621749209,-1.235319369,-7.94E-09,4.68E-05,1.20E-08
0,0,0,0,0,0,4.94E-05,0.00286879,3.05E-07,0.999995884,-2.19E-05,0.000298923,-6.53E-05,-0.074178876,-0.032410135,9.97320517,1,-0.417246969,0.243860284,-0.991207281,-0.625224956,0.354160233,6.96E-10,-3.97E-05,4.58E-09
0,0,0,0,0,0,4.94E-05,0.002868828,3.05E-07,0.999995884,0.000105612,0.000461799,0.000142376,-0.053688714,0.015825499,10.23558366,1,-0.417246847,0.243929228,-0.991207281,-0.624195621,0.913070127,6.79E-09,4.32E-06,7.16E-09
0,0,0,0,0,0,4.94E-05,0.002869261,3.05E-07,0.999995882,0.000418377,0.00064189,-0.000338534,-0.066627156,0.005065118,9.233969731,1,-0.417246994,0.244719353,-0.991207281,-0.622316559,-1.22177321,-8.18E-09,4.96E-05,1.15E-08
0,0,0,0,0,0,4.94E-05,0.00286894,3.05E-07,0.999995883,-0.000144752,0.000198282,6.92E-05,-0.053196963,0.012000566,9.933471676,1,-0.417247002,0.24413435,-0.991207281,-0.625508134,0.269083435,-4.97E-10,-3.67E-05,4.15E-09
0,0,0,0,0,0,4.94E-05,0.002869002,3.05E-07,0.999995883,0.000249967,0.00053103,-4.33E-05,-0.071697362,0.009396043,10.25642059,1,-0.417246905,0.244247782,-0.991207281,-0.62368142,0.957703086,5.44E-09,7.12E-06,6.82E-09
0,0,0,0,0,0,4.94E-05,0.002869247,3.05E-07,0.999995882,0.000270332,0.000435238,0.000627869,-0.025090974,-0.011832032,8.994304756,1,-0.417247023,0.244694037,-0.99120728,-0.622465932,-1.733065343,-6.57E-09,2.80E-05,1.06E-08
0,0,0,0,0,0,4.94E-05,0.002868803,3.06E-07,0.999995884,0.000216313,0.000745095,-3.13E-05,-0.068016879,-0.003738572,10.25893816,1,-0.417246895,0.243883651,-0.99120728,-0.622651646,0.963008236,7.12E-09,-5.08E-05,2.08E-09
0,0,0,0,0,0,4.94E-05,0.00286889,3.06E-07,0.999995884,-0.00010454,0.001226154,-6.42E-05,-0.050031414,-0.000925099,10.16563479,1,-0.417246763,0.24404275,-0.99120728,-0.6201547,0.763903966,7.37E-09,9.98E-06,6.57E-09
0,0,0,0,0,0,4.94E-05,0.002869159,3.06E-07,0.999995883,0.000436739,0.000376845,-9.12E-05,-0.047460828,-0.044847009,8.979192839,1,-0.417246891,0.24453413,-0.99120728,-0.623706124,-1.764862889,-7.16E-09,3.08E-05,1.05E-08
0,0,0,0,0,0,4.94E-05,0.002868742,3.06E-07,0.999995884,0.000124433,0.000222573,-2.89E-05,-0.019681001,0.002729768,10.27557518,1,-0.417246788,0.243771206,-0.99120728,-0.62549962,0.998030459,5.79E-09,-4.79E-05,2.13E-09
0,0,0,0,0,0,4.94E-05,0.002868853,3.06E-07,0.999995884,0.000479401,0.000530503,8.54E-05,-0.060149075,0.011976898,10.12988594,1,-0.417246681,0.243974401,-0.99120728,-0.622960514,0.687835201,5.96E-09,1.27E-05,6.76E-09
0,0,0,0,0,0,4.94E-05,0.002868861,3.06E-07,0.999995884,5.24E-05,0.000175057,2.20E-05,-0.04643803,0.004011406,8.796895456,1,-0.417246748,0.243988524,-0.991207279,-0.625897169,-2.153689438,-3.75E-09,8.86E-07,9.65E-09
0,0,0,0,0,0,4.94E-05,0.002868393,3.06E-07,0.999995885,0.000129533,0.000355769,0.000555861,-0.062748815,-0.003952257,10.51409373,1,-0.417246525,0.243134711,-0.991207279,-0.623221023,1.5068145,1.25E-08,-5.36E-05,9.91E-10
0,0,0,0,0,0,4.94E-05,0.002868529,3.06E-07,0.999995885,4.54E-05,0.001048982,-0.000313839,-0.053443067,-0.025305244,10.11889617,1,-0.417246398,0.243383497,-0.991207279,-0.620902012,0.66438204,7.06E-09,1.56E-05,7.00E-09
0,0,0,0,0,0,4.94E-05,0.002868562,3.06E-07,0.999995884,0.000115974,0.000228722,0.000339045,-0.050231258,-0.002630261,8.77819813,1,-0.417246482,0.243443701,-0.991207279,-0.624576628,-2.193500546,-4.66E-09,3.78E-06,9.92E-09
0,0,0,0,0,0,4.94E-05,0.002868121,3.06E-07,0.999995886,0.000385158,0.000485226,6.93E-05,-0.055347726,0.015352172,10.53125563,1,-0.417246285,0.242637148,-0.991207279,-0.623490491,1.54332984,1.10E-08,-5.06E-05,1.30E-09
0,0,0,0,0,0,4.94E-05,0.002868281,3.06E-07,0.999995885,9.00E-05,0.000589145,-0.00011575,-0.064468109,-0.021655316,9.773465775,1,-0.417246185,0.242929755,-0.991207279,-0.623579513,-0.071798617,5.58E-09,1.84E-05,7.34E-09
0,0,0,0,0,0,4.94E-05,0.002867982,3.06E-07,0.999995886,9.05E-06,0.000539934,8.32E-05,-0.031537891,0.003495421,9.267412314,1,-0.417246168,0.242383854,-0.991207278,-0.623912233,-1.150886798,9.16E-10,-3.42E-05,7.55E-09
0,0,0,0,0,0,4.94E-05,0.002867562,3.06E-07,0.999995887,0.000391069,0.000373728,-0.000125787,-0.086770144,-0.000378731,10.40785061,1,-0.417245879,0.241616548,-0.991207278,-0.623863031,1.280717789,1.61E-08,-4.81E-05,1.57E-09
0,0,0,0,0,0,4.94E-05,0.002867747,3.06E-07,0.999995887,3.55E-05,0.00080432,2.67E-05,-0.051458214,0.019977923,9.758532491,1,-0.417245772,0.2419545,-0.991207278,-0.622492462,-0.103801861,5.99E-09,2.12E-05,7.42E-09
0,0,0,0,0,0,4.94E-05,0.002867474,3.06E-07,0.999995888,-0.00039519,0.000322599,0.000275561,-0.039899261,0.035613431,9.23174506,1,-0.417245777,0.241455969,-0.991207278,-0.623729112,-1.22670042,-2.56E-10,-3.13E-05,7.60E-09
0,0,0,0,0,0,4.94E-05,0.00286708,3.06E-07,0.999995889,0.000279906,0.000279365,-0.000251497,-0.044951735,-0.003131856,10.37981369,1,-0.417245516,0.240735415,-0.991207278,-0.624338023,1.220392,1.45E-08,-4.52E-05,1.61E-09
0,0,0,0,0,0,4.94E-05,0.00286722,3.06E-07,0.999995888,0.000254077,0.000346422,-0.000144972,-0.025713124,0.012157855,9.529661818,1,-0.417245429,0.240991136,-0.991207278,-0.624421577,-0.591903116,4.86E-09,1.60E-05,7.85E-09
0,0,0,0,0,0,4.94E-05,0.00286683,3.06E-07,0.999995889,-0.000219055,0.000663268,0.000410713,-0.078442802,0.008382568,9.882880493,1,-0.417245333,0.240279099,-0.991207277,-0.622466392,0.161595735,5.35E-09,-4.47E-05,3.08E-09
0,0,0,0,0,0,4.94E-05,0.002866823,3.07E-07,0.999995889,2.38E-05,0.000954337,4.37E-05,-0.076385,-0.011966955,10.19439132,1,-0.4172452,0.240266027,-0.991207277,-0.621670247,0.825563597,7.47E-09,-8.20E-07,5.90E-09
0,0,0,0,0,0,4.94E-05,0.002866713,3.07E-07,0.99999589,4.01E-05,0.000832833,-1.89E-05,-0.04712968,-0.005367337,9.128710918,1,-0.417245213,0.240065444,-0.991207277,-0.622336503,-1.446394714,-7.21E-10,-1.26E-05,7.69E-09
0,0,0,0,0,0,4.94E-05,0.002866488,3.07E-07,0.99999589,-1.49E-05,0.000732413,-0.000321587,-0.043272048,-0.013180437,10.33880951,1,-0.417245055,0.239654326,-0.991207277,-0.622522613,1.132990262,8.79E-09,-2.58E-05,2.71E-09
0,0,0,0,0,0,4.94E-05,0.002866654,3.07E-07,0.99999589,0.000270166,0.000665854,1.06E-05,-0.036544927,0.03565404,9.256685263,1,-0.417245072,0.239957987,-0.991207277,-0.622968489,-1.173568155,-9.52E-10,1.90E-05,9.00E-09
0,0,0,0,0,0,4.94E-05,0.002866285,3.07E-07,0.999995891,0.000203041,0.000818913,-0.000227076,-0.066005951,0.005898403,10.16278119,1,-0.417244974,0.239282803,-0.991207277,-0.622118922,0.758019281,5.48E-09,-4.24E-05,2.67E-09
0,0,0,0,0,0,4.94E-05,0.002866442,3.07E-07,0.999995891,0.000125341,0.000501765,0.000519448,-0.054553328,0.021945212,9.825359431,1,-0.417244919,0.23957005,-0.991207276,-0.622889836,0.038688198,3.05E-09,1.80E-05,7.42E-09
0,0,0,0,0,0,4.94E-05,0.002866213,3.07E-07,0.999995891,9.81E-05,0.000408553,7.93E-05,-0.060683089,-0.009675927,9.544029318,1,-0.417244931,0.239151961,-0.991207276,-0.624563063,-0.560946266,-6.49E-10,-2.62E-05,6.54E-09
0,0,0,0,0,0,4.94E-05,0.002866152,3.07E-07,0.999995891,-4.82E-05,0.000869648,-0.000253876,-0.071167368,-0.001857162,10.25610031,1,-0.417244818,0.239039755,-0.991207276,-0.621935418,0.957003717,6.29E-09,-7.04E-06,5.38E-09
0,0,0,0,0,0,4.94E-05,0.00286627,3.07E-07,0.999995891,0.000415166,0.000322363,4.48E-05,-0.049754028,-0.024944353,9.021222017,1,-0.417244888,0.239256077,-0.991207276,-0.624015533,-1.675413943,-3.89E-09,1.36E-05,1.03E-08
0,0,0,0,0,0,4.94E-05,0.002865993,3.07E-07,0.999995892,0.000327377,0.000796896,-0.000306184,-0.065806896,-0.012848752,10.41893414,1,-0.417244788,0.238749512,-0.991207276,-0.621896609,1.304032234,5.56E-09,-3.18E-05,3.20E-09
0,0,0,0,0,0,4.94E-05,0.002866245,3.07E-07,0.999995891,0.000229884,0.000491176,-4.66E-05,-0.101361417,-0.00803623,9.507006197,1,-0.417244814,0.23921069,-0.991207276,-0.623923624,-0.639127133,-1.41E-09,2.89E-05,9.74E-09
0,0,0,0,0,0,4.94E-05,0.002865966,3.07E-07,0.999995892,8.89E-05,0.000744896,4.34E-05,-0.022794416,0.004997098,9.881971376,1,-0.417244809,0.238700666,-0.991207275,-0.622788902,0.159045447,2.60E-10,-3.20E-05,5.13E-09
0,0,0,0,0,0,4.94E-05,0.002866069,3.07E-07,0.999995892,0.000317307,0.000841291,-0.000183644,-0.063962002,0.034613426,10.20036933,1,-0.417244758,0.23888909,-0.991207275,-0.621878036,0.838233959,2.83E-09,1.18E-05,8.04E-09
0,0,0,0,0,0,4.94E-05,0.00286607,3.07E-07,0.999995892,-0.000134792,0.000470612,7.13E-05,-0.068718034,0.003750816,9.139217943,1,-0.417244851,0.238890076,-0.991207275,-0.624195342,-1.423708391,-5.20E-09,6.19E-08,9.88E-09
0,0,0,0,0,0,4.94E-05,0.002865955,3.07E-07,0.999995892,-0.000494616,0.000918742,-8.64E-05,-0.03473201,-0.006863724,10.3446083,1,-0.417244773,0.238680547,-0.991207275,-0.621169742,1.145269126,4.37E-09,-1.31E-05,4.86E-09
0,0,0,0,0,0,4.94E-05,0.002866232,3.07E-07,0.999995891,4.94E-05,0.000317757,0.000132434,-0.031919082,0.013203719,9.266765827,1,-0.417244869,0.239185982,-0.991207274,-0.625000266,-1.152243409,-5.34E-09,3.17E-05,1.11E-08
0,0,0,0,0,0,4.94E-05,0.002865973,3.08E-07,0.999995892,1.40E-05,0.000916209,9.48E-05,-0.05046024,0.02014328,10.18921083,1,-0.417244849,0.238712572,-0.991207274,-0.621858833,0.814204726,1.13E-09,-2.97E-05,4.63E-09
0,0,0,0,0,0,4.94E-05,0.00286624,3.08E-07,0.999995891,0.000145948,0.000826118,-5.77E-05,-0.041416506,-0.005071073,9.861972149,1,-0.417244871,0.239201577,-0.991207274,-0.622298807,0.116544677,-1.28E-09,3.07E-05,9.22E-09
0,0,0,0,0,0,4.94E-05,0.002866122,3.08E-07,0.999995891,9.10E-05,0.000707601,-7.18E-06,-0.018429344,0.008475152,9.527859017,1,-0.41724496,0.238985192,-0.991207274,-0.622996906,-0.5957904,-4.94E-09,-1.36E-05,8.15E-09
0,0,0,0,0,0,4.94E-05,0.002866171,3.08E-07,0.999995891,-5.79E-05,0.000834912,-0.000384593,-0.079976362,0.009520011,10.31806794,1,-0.417244924,0.239074582,-0.991207274,-0.621859667,1.089236795,2.03E-09,5.61E-06,6.79E-09
0,0,0,0,0,0,4.94E-05,0.002866399,3.08E-07,0.999995891,-6.89E-05,0.00040934,0.000223034,-0.062099647,0.037368471,9.018750825,1,-0.417245069,0.239492374,-0.991207273,-0.624323962,-1.680426743,-8.11E-09,2.62E-05,1.15E-08
0,0,0,0,0,0,4.94E-05,0.002866232,3.08E-07,0.999995891,0.000229,0.000505741,-0.000167845,-0.073629061,0.029348136,10.45924917,1,-0.417245044,0.239187165,-0.991207273,-0.623728134,1.390147741,1.38E-09,-1.91E-05,4.23E-09
0,0,0,0,0,0,4.94E-05,0.002866595,3.08E-07,0.99999589,-0.000180585,0.000547293,0.000134694,-0.055722265,0.005927643,9.530639707,1,-0.417245143,0.239849534,-0.991207273,-0.62366317,-0.589557981,-5.54E-09,4.15E-05,1.06E-08
0,0,0,0,0,0,4.94E-05,0.002866426,3.08E-07,0.999995891,0.000214003,0.00071328,0.000250662,-0.052546649,0.001014071,9.882988505,1,-0.417245212,0.239540596,-0.991207273,-0.622600935,0.161452697,-3.83E-09,-1.94E-05,5.89E-09
0,0,0,0,0,0,4.94E-05,0.002866639,3.08E-07,0.99999589,0.000155292,0.001001525,-6.38E-05,-0.074272409,0.01324842,10.20773478,1,-0.417245234,0.239929949,-0.991207272,-0.621342273,0.853975729,-1.22E-09,2.44E-05,8.72E-09
0,0,0,0,0,0,4.94E-05,0.002866749,3.08E-07,0.99999589,-0.000103164,0.000518211,0.000214452,-0.031646739,0.002802255,9.093318802,1,-0.417245399,0.240131728,-0.991207272,-0.623781536,-1.52198066,-9.20E-09,1.27E-05,1.05E-08
0,0,0,0,0,0,4.94E-05,0.002866745,3.08E-07,0.99999589,0.000128337,0.00079179,2.85E-05,-0.068134605,-0.003981019,10.33688622,1,-0.417245391,0.240122854,-0.991207272,-0.622508451,1.129159936,4.13E-10,-5.57E-07,5.50E-09
0,0,0,0,0,0,4.94E-05,0.002867131,3.08E-07,0.999995889,0.000202603,0.000522599,0.00016689,-0.075142819,0.015230122,9.274471628,1,-0.417245557,0.24082878,-0.991207272,-0.623701688,-1.135279494,-9.25E-09,4.43E-05,1.18E-08
0,0,0,0,0,0,4.94E-05,0.002866981,3.08E-07,0.999995889,-0.000324619,0.000686407,0.000235223,-0.0816682,-0.01466417,10.20029519,1,-0.417245606,0.240555753,-0.991207272,-0.622550802,0.838242637,-2.75E-09,-1.71E-05,5.37E-09
0,0,0,0,0,0,4.94E-05,0.002867359,3.08E-07,0.999995888,-2.86E-05,0.000622179,0.000167321,-0.074392793,-0.005690392,9.857026728,1,-0.417245698,0.241244971,-0.991207271,-0.623372422,0.106416789,-5.11E-09,4.32E-05,1.01E-08
0,0,0,0,0,0,4.94E-05,0.00286735,3.08E-07,0.999995888,0.00041604,0.000594591,0.000398672,-0.057769533,-0.010624567,9.537314367,1,-0.417245854,0.241228685,-0.991207271,-0.622369511,-0.575295921,-8.73E-09,-1.02E-06,9.10E-09
0,0,0,0,0,0,4.94E-05,0.002867508,3.09E-07,0.999995887,0.000217902,0.001094375,3.04E-05,-0.054100843,3.63E-05,10.26600531,1,-0.417245885,0.241518025,-0.991207271,-0.620790211,0.977894328,-1.71E-09,1.81E-05,7.84E-09
0,0,0,0,0,0,4.94E-05,0.002867846,3.09E-07,0.999995887,0.000112809,0.000656542,-8.13E-05,-0.071897332,0.017776766,8.996839064,1,-0.417246097,0.24213562,-0.99120727,-0.623229,-1.727104632,-1.18E-08,3.87E-05,1.27E-08
0,0,0,0,0,0,4.94E-05,0.002867788,3.09E-07,0.999995887,2.95E-05,0.001177815,-1.07E-06,-0.059434037,-0.006250358,10.45594223,1,-0.417246138,0.242030092,-0.99120727,-0.620451032,1.382822566,-2.28E-09,-6.62E-06,5.50E-09
0,0,0,0,0,0,4.94E-05,0.00286826,3.09E-07,0.999995885,-3.83E-05,0.000605401,5.06E-05,-0.071288114,0.005242122,9.534964566,1,-0.417246302,0.242891975,-0.99120727,-0.623570762,-0.580119179,-9.16E-09,5.41E-05,1.20E-08
0,0,0,0,0,0,4.94E-05,0.002868053,3.09E-07,0.999995886,0.000229861,0.000724338,-1.73E-05,-0.056495845,-0.015020328,9.670089595,1,-0.417246408,0.242513091,-0.99120727,-0.622741254,-0.29228219,-5.94E-09,-2.38E-05,8.03E-09
0,0,0,0,0,0,4.94E-05,0.002868011,3.09E-07,0.999995886,0.000168844,0.000524274,0.000167396,-0.049157107,-0.002664529,10.33271387,1,-0.417246301,0.242436539,-0.99120727,-0.623751811,1.120035876,5.99E-09,-4.80E-06,6.63E-09
0,0,0,0,0,0,4.94E-05,0.002868505,3.09E-07,0.999995885,-3.47E-05,0.00067308,-0.000368571,-0.067685605,-0.022393331,9.45371123,1,-0.417246431,0.243338791,-0.991207269,-0.622697221,-0.753316255,-7.26E-09,5.66E-05,1.21E-08
0,0,0,0,0,0,4.94E-05,0.002868323,3.09E-07,0.999995885,-0.000132431,0.000622973,-0.00021341,-0.044558694,0.003981112,9.637234866,1,-0.417246546,0.24300691,-0.991207269,-0.62322573,-0.362470392,-6.40E-09,-2.08E-05,7.96E-09
0,0,0,0,0,0,4.94E-05,0.002868306,3.09E-07,0.999995885,0.00027747,0.000803911,2.84E-05,-0.029448471,0.009739755,10.33216038,1,-0.417246459,0.242976208,-0.991207269,-0.622243873,1.118705321,4.82E-09,-1.93E-06,6.48E-09
0,0,0,0,0,0,4.94E-05,0.002868684,3.09E-07,0.999995884,-2.18E-05,0.000484132,7.64E-06,-0.094797937,-0.000928053,9.245626604,1,-0.417246587,0.243666609,-0.991207268,-0.62425025,-1.196404826,-7.10E-09,4.33E-05,1.17E-08
0,0,0,0,0,0,4.94E-05,0.002868308,3.09E-07,0.999995885,0.000165069,0.000900436,7.59E-05,-0.090860915,0.006133208,9.964350723,1,-0.417246559,0.242979015,-0.991207268,-0.621873211,0.335472933,1.53E-09,-4.31E-05,4.29E-09
0,0,0,0,0,0,4.94E-05,0.002868316,3.09E-07,0.999995885,8.79E-05,0.001016162,-9.88E-05,-0.055911947,0.009782582,10.27758602,1,-0.417246423,0.242992944,-0.991207268,-0.621291716,1.002609904,7.61E-09,8.74E-07,6.87E-09
0,0,0,0,0,0,4.94E-05,0.002868718,3.09E-07,0.999995884,-0.000192874,0.000577024,-7.55E-05,-0.046966333,2.31E-05,9.227098611,1,-0.417246555,0.243728104,-0.991207268,-0.623546928,-1.236680177,-7.37E-09,4.61E-05,1.12E-08
0,0,0,0,0,0,4.94E-05,0.002868368,3.09E-07,0.999995885,-0.000161452,0.00031457,2.24E-05,-0.071386213,-0.017487774,9.961994467,1,-0.417246549,0.243088158,-0.991207268,-0.624964575,0.330141224,3.03E-10,-4.01E-05,3.84E-09
0,0,0,0,0,0,4.94E-05,0.0028684,3.09E-07,0.999995885,0.000425173,0.001163848,0.000228031,-0.060016029,-0.00115049,10.21226792,1,-0.417246438,0.243146687,-0.991207268,-0.620003458,0.863420296,6.23E-09,3.67E-06,6.51E-09
0,0,0,0,0,0,4.94E-05,0.002868614,3.10E-07,0.999995884,0.000180101,0.000346192,0.0001318,-0.083306125,0.019302019,9.016771183,1,-0.417246542,0.243538083,-0.991207267,-0.624649007,-1.684402946,-5.79E-09,2.46E-05,1.03E-08
0,0,0,0,0,0,4.94E-05,0.00286814,3.10E-07,0.999995886,0.000142782,0.000705381,0.00014829,-0.061720665,0.033226674,10.24298103,1,-0.4172464,0.24267286,-0.991207267,-0.622880003,0.929023325,7.89E-09,-5.43E-05,1.74E-09
0,0,0,0,0,0,4.94E-05,0.002868197,3.10E-07,0.999995885,0.000101953,0.0009348,-0.000261372,-0.048464719,-0.019836457,10.21687876,1,-0.417246254,0.242777168,-0.991207267,-0.621558712,0.873158756,8.14E-09,6.54E-06,6.23E-09
0,0,0,0,0,0,4.94E-05,0.002868436,3.10E-07,0.999995885,-0.000134811,0.000194206,0.000182015,-0.04201409,-0.01541885,8.978888153,1,-0.417246369,0.243213799,-0.991207267,-0.625270975,-1.765780697,-6.41E-09,2.74E-05,1.02E-08
0,0,0,0,0,0,4.94E-05,0.002867989,3.10E-07,0.999995886,-0.000334885,0.000684314,-0.000156854,-0.080818427,-0.005718422,10.22837747,1,-0.417246252,0.242396148,-0.991207267,-0.622644242,0.898067233,6.53E-09,-5.13E-05,1.78E-09
0,0,0,0,0,0,4.94E-05,0.00286807,3.10E-07,0.999995886,-4.35E-05,0.000883158,0.000261959,-0.057325701,0.007969457,10.15192537,1,-0.417246132,0.242544662,-0.991207267,-0.621853317,0.734770204,6.70E-09,9.32E-06,6.41E-09
0,0,0,0,0,0,4.94E-05,0.002868048,3.10E-07,0.999995886,0.000447791,0.000714548,0.000161886,-0.070137411,0.001030964,8.789467645,1,-0.417246187,0.242504137,-0.991207266,-0.622201474,-2.169189102,-3.03E-09,-2.54E-06,9.29E-09
0,0,0,0,0,0,4.94E-05,0.002867551,3.10E-07,0.999995887,0.000311424,0.000506126,0.000285574,-0.065510346,0.007370768,10.51729385,1,-0.41724595,0.241595704,-0.991207266,-0.623293542,1.513675553,1.32E-08,-5.70E-05,6.34E-10
0,0,0,0,0,0,4.94E-05,0.002867657,3.10E-07,0.999995887,4.06E-05,0.000726174,-3.26E-05,-0.062515851,0.019194351,10.1111736,1,-0.417245811,0.241789917,-0.991207266,-0.622917082,0.648003174,7.76E-09,1.22E-05,6.64E-09
0,0,0,0,0,0,4.94E-05,0.00286766,3.10E-07,0.999995887,-8.80E-05,0.000430191,-1.40E-05,-0.04268169,-0.009823793,8.795801554,1,-0.417245882,0.241795581,-0.991207266,-0.624498802,-2.156051978,-3.96E-09,3.55E-07,9.57E-09
0,0,0,0,0,0,4.94E-05,0.002867189,3.10E-07,0.999995888,6.95E-05,0.000336469,-0.000446481,-0.028474361,0.02754715,10.51290659,1,-0.417245673,0.240934517,-0.991207266,-0.623819143,1.504042436,1.17E-08,-5.40E-05,9.50E-10
0,0,0,0,0,0,4.94E-05,0.002867319,3.10E-07,0.999995888,0.000160707,0.000461941,-0.00033855,-0.080667673,-0.001333454,9.829144368,1,-0.417245561,0.241172659,-0.991207266,-0.623646787,0.047086857,6.26E-09,1.49E-05,6.99E-09
0,0,0,0,0,0,4.94E-05,0.002867065,3.10E-07,0.999995889,0.000359944,0.000439215,0.000385885,-0.09217626,0.002844177,9.563699923,1,-0.41724554,0.240709089,-0.991207265,-0.623144258,-0.518490492,1.18E-09,-2.91E-05,6.00E-09
0,0,0,0,0,0,4.94E-05,0.00286698,3.10E-07,0.999995889,-2.64E-05,0.000830385,6.23E-05,-0.037759804,0.007483345,10.24374993,1,-0.417245404,0.240552319,-0.991207265,-0.622341325,0.930305225,7.59E-09,-9.83E-06,4.76E-09
0,0,0,0,0,0,4.94E-05,0.002867073,3.10E-07,0.999995889,0.000554844,0.000637648,-0.00020256,-0.051678178,-0.018390396,9.062431326,1,-0.417245454,0.240723852,-0.991207265,-0.62214385,-1.587584612,-2.76E-09,1.08E-05,9.59E-09
0,0,0,0,0,0,4.94E-05,0.002866772,3.10E-07,0.99999589,0.000177531,0.000450281,0.000100262,-0.061342712,0.009169141,10.45233455,1,-0.417245334,0.240172511,-0.991207265,-0.624197616,1.375160676,6.64E-09,-3.46E-05,2.46E-09
0,0,0,0,0,0,4.94E-05,0.002866999,3.10E-07,0.999995889,-0.000168839,0.000637929,-0.000159596,-0.067603744,0.015151107,9.531754189,1,-0.41724534,0.240588553,-0.991207265,-0.623186163,-0.586996824,-3.21E-10,2.61E-05,8.98E-09
0,0,0,0,0,0,4.94E-05,0.002866695,3.11E-07,0.99999589,-9.94E-05,0.000463611,0.000254538,-0.060543108,0.011267805,9.894639098,1,-0.417245316,0.240033295,-0.991207265,-0.623957331,0.18639763,1.36E-09,-3.48E-05,4.40E-09
0,0,0,0,0,0,4.94E-05,0.002866774,3.11E-07,0.99999589,-4.76E-05,0.001205015,-3.35E-05,-0.071947221,-0.00246399,10.18443443,1,-0.417245245,0.240176357,-0.991207264,-0.620296353,0.804256931,3.93E-09,8.97E-06,7.35E-09
0,0,0,0,0,0,4.94E-05,0.002866749,3.11E-07,0.99999589,0.000348543,0.000524106,0.000105155,-0.076932106,0.018854068,9.109480599,1,-0.417245319,0.240131938,-0.991207264,-0.623409548,-1.486914565,-4.09E-09,-2.79E-06,9.27E-09
0,0,0,0,0,0,4.94E-05,0.00286661,3.11E-07,0.99999589,0.000524331,0.000794708,7.34E-05,-0.041004968,-0.005950599,10.36696768,1,-0.417245221,0.239876994,-0.991207264,-0.621674133,1.192977563,5.48E-09,-1.60E-05,4.34E-09
0,0,0,0,0,0,4.94E-05,0.002866862,3.11E-07,0.999995889,0.000180452,0.000710481,-2.58E-05,-0.041454849,-0.002297694,9.259824446,1,-0.417245296,0.240337021,-0.991207264,-0.622887184,-1.166978426,-4.24E-09,2.89E-05,1.07E-08
0,0,0,0,0,0,4.94E-05,0.002866578,3.11E-07,0.99999589,0.000252212,0.000210876,-0.0002027,-0.050410417,-0.028191321,10.1587414,1,-0.417245257,0.239818216,-0.991207264,-0.624789648,0.749297522,2.22E-09,-3.25E-05,4.30E-09
0,0,0,0,0,0,4.94E-05,0.002866821,3.11E-07,0.999995889,0.00017381,0.000770913,0.000103835,-0.036380676,-0.004297588,9.856305272,1,-0.41724526,0.240261858,-0.991207263,-0.622538975,0.104422166,-1.93E-10,2.78E-05,8.98E-09
0,0,0,0,0,0,4.94E-05,0.002866677,3.11E-07,0.99999589,0.00025139,0.000416545,0.000286892,-0.076401496,-0.005562858,9.525871363,1,-0.41724533,0.240000134,-0.991207263,-0.623811273,-0.599416755,-3.87E-09,-1.64E-05,8.00E-09
0,0,0,0,0,0,4.94E-05,0.002866701,3.11E-07,0.99999589,0.00038241,0.000919654,-6.13E-05,-0.057780232,-0.00499531,10.25620308,1,-0.417245274,0.240044218,-0.991207263,-0.621438827,0.957045633,3.10E-09,2.77E-06,6.71E-09
0,0,0,0,0,0,4.94E-05,0.002866905,3.11E-07,0.999995889,0.000406203,5.35E-05,0.000320684,-0.036399987,0.018490368,9.010544247,1,-0.4172454,0.240416741,-0.991207263,-0.624055164,-1.698343401,-7.06E-09,2.34E-05,1.15E-08
0,0,0,0,0,0,4.94E-05,0.002866714,3.11E-07,0.99999589,-8.00E-05,0.000968281,0.000377307,-0.052860169,-0.002492397,10.43051833,1,-0.417245357,0.240066291,-0.991207262,-0.621195634,1.328551282,2.43E-09,-2.20E-05,4.23E-09
0,0,0,0,0,0,4.94E-05,0.002867051,3.11E-07,0.999995889,-4.46E-05,0.000683156,9.35E-05,-0.040783734,0.003801287,9.511497299,1,-0.417245438,0.240683461,-0.991207262,-0.623120185,-0.63052494,-4.51E-09,3.87E-05,1.06E-08
0,0,0,0,0,0,4.94E-05,0.002866858,3.11E-07,0.999995889,-9.79E-05,0.000744381,0.000101645,-0.039399466,0.005655232,9.877914085,1,-0.417245488,0.240329349,-0.991207262,-0.622754882,0.150509167,-2.80E-09,-2.22E-05,5.90E-09
0,0,0,0,0,0,4.94E-05,0.002867046,3.11E-07,0.999995889,-9.40E-05,0.00066446,-0.000196187,-0.043959977,-0.008852016,10.22521576,1,-0.417245491,0.240673567,-0.991207262,-0.623075228,0.890853368,-2.01E-10,2.16E-05,8.71E-09
0,0,0,0,0,0,4.94E-05,0.002867132,3.11E-07,0.999995889,0.000116599,0.000397881,-4.41E-05,-0.054021101,0.01837709,9.0992718,1,-0.417245638,0.240830243,-0.991207261,-0.624621297,-1.509028229,-8.19E-09,9.83E-06,1.05E-08
0,0,0,0,0,0,4.94E-05,0.002867102,3.12E-07,0.999995889,0.000187579,0.000584008,-0.000329791,-0.04148887,-0.032747285,10.33538703,1,-0.417245613,0.2407763,-0.991207261,-0.623090241,1.125772088,1.41E-09,-3.38E-06,5.40E-09
0,0,0,0,0,0,4.94E-05,0.002867464,3.12E-07,0.999995888,0.000140813,0.000547137,-0.000356187,-0.051003925,-0.008059711,9.265884749,1,-0.417245761,0.241437194,-0.991207261,-0.623246669,-1.153952045,-8.26E-09,4.15E-05,1.16E-08
0,0,0,0,0,0,4.94E-05,0.00286729,3.12E-07,0.999995888,0.000364808,0.000566126,-0.000359125,-0.062245812,-0.000348382,10.1785421,1,-0.417245793,0.241119163,-0.991207261,-0.622724158,0.791560272,-1.77E-09,-1.99E-05,5.15E-09
0,0,0,0,0,0,4.94E-05,0.002867643,3.12E-07,0.999995887,-0.000172114,0.00067375,-0.000183986,-0.071668888,-0.013493703,9.841057384,1,-0.417245867,0.241763416,-0.991207261,-0.622964868,0.072350761,-4.14E-09,4.04E-05,9.78E-09
0,0,0,0,0,0,4.94E-05,0.002867609,3.12E-07,0.999995887,0.000181821,0.000830345,0.000463381,-0.051744664,0.00627368,9.516183844,1,-0.417246006,0.241702193,-0.99120726,-0.621601845,-0.620418853,-7.77E-09,-3.84E-06,8.77E-09
0,0,0,0,0,0,4.94E-05,0.002867743,3.12E-07,0.999995887,-0.000328517,0.000670054,0.000204241,-0.04830255,0.006637723,10.28159666,1,-0.41724602,0.241946631,-0.99120726,-0.622666931,1.011071287,-7.64E-10,1.53E-05,7.47E-09
0,0,0,0,0,0,4.94E-05,0.002868056,3.12E-07,0.999995886,7.68E-05,0.000475704,-7.97E-05,-0.024948134,-0.020214948,9.02973174,1,-0.417246215,0.242519359,-0.99120726,-0.624229829,-1.657518953,-1.09E-08,3.59E-05,1.23E-08
0,0,0,0,0,0,4.94E-05,0.002867974,3.12E-07,0.999995886,0.000327532,0.000712126,0.000366858,-0.046173746,0.017892326,10.43217742,1,-0.417246239,0.242368994,-0.99120726,-0.62216435,1.332052148,-1.35E-09,-9.43E-06,5.08E-09
0,0,0,0,0,0,4.94E-05,0.002868421,3.12E-07,0.999995885,-0.00015982,0.00058193,-6.33E-05,-0.048826179,0.013656451,9.543724457,1,-0.417246387,0.243186079,-0.991207259,-0.62358132,-0.561730723,-8.24E-09,5.13E-05,1.16E-08
0,0,0,0,0,0,4.94E-05,0.002868189,3.12E-07,0.999995886,4.11E-06,0.000824832,7.48E-05,-0.071747793,-0.006603177,9.645805596,1,-0.417246477,0.242762417,-0.991207259,-0.622368209,-0.34384882,-5.03E-09,-2.66E-05,7.60E-09
0,0,0,0,0,0,4.94E-05,0.002868123,3.12E-07,0.999995886,-0.000127489,0.000701508,0.000110168,-0.082100977,0.028546791,10.31982843,1,-0.417246353,0.242641121,-0.991207259,-0.622953114,1.093099697,6.89E-09,-7.61E-06,6.21E-09
0,0,0,0,0,0,4.94E-05,0.002868592,3.12E-07,0.999995884,-8.60E-05,0.000837917,-1.35E-05,-0.057907902,-0.000197626,9.456419957,1,-0.417246467,0.243498672,-0.991207259,-0.622290433,-0.747737431,-6.37E-09,5.38E-05,1.17E-08
0,0,0,0,0,0,4.94E-05,0.002868386,3.12E-07,0.999995885,1.05E-05,0.000601199,4.93E-05,-0.061973041,-0.00080401,9.603650968,1,-0.417246566,0.243122109,-0.991207258,-0.623600372,-0.433852601,-5.51E-09,-2.36E-05,7.59E-09
0,0,0,0,0,0,4.94E-05,0.002868345,3.12E-07,0.999995885,0.000181463,0.000881024,-7.88E-05,-0.052329235,0.0082988,10.31214625,1,-0.417246464,0.24304676,-0.991207258,-0.6219588,1.076234266,5.70E-09,-4.73E-06,6.14E-09
0,0,0,0,0,0,4.94E-05,0.002868698,3.13E-07,0.999995884,1.07E-05,0.000464829,-9.78E-05,-0.049950467,-0.039388797,9.255353338,1,-0.417246575,0.243692554,-0.991207258,-0.624302613,-1.176241439,-6.23E-09,4.05E-05,1.14E-08
0,0,0,0,0,0,4.94E-05,0.002868298,3.13E-07,0.999995885,-8.49E-05,0.000406906,-0.00023856,-0.060931335,-0.03346969,9.94790305,1,-0.417246533,0.242960371,-0.991207258,-0.624279911,0.300043933,2.39E-09,-4.59E-05,4.02E-09
0,0,0,0,0,0,4.94E-05,0.002868281,3.13E-07,0.999995885,2.90E-05,0.000875429,-0.000247184,-0.06543799,-0.016751334,10.24674862,1,-0.417246381,0.242929747,-0.991207258,-0.621919586,0.937017625,8.46E-09,-1.92E-06,6.62E-09
0,0,0,0,0,0,4.94E-05,0.002868659,3.13E-07,0.999995884,0.000328519,0.000532928,0.00023764,-0.051291833,0.013130875,9.223872157,1,-0.417246498,0.243620394,-0.991207257,-0.623237031,-1.243488541,-6.53E-09,4.33E-05,1.10E-08
0,0,0,0,0,0,4.94E-05,0.002868284,3.13E-07,0.999995885,-5.98E-05,0.000650464,0.000452632,-0.088609245,0.012409079,9.96456916,1,-0.417246478,0.242935954,-0.991207257,-0.622551854,0.335907757,1.14E-09,-4.29E-05,3.65E-09
0,0,0,0,0,0,4.94E-05,0.002868292,3.13E-07,0.999995885,0.000144269,0.000805132,0.000380267,-0.071393869,0.004179222,10.21338286,1,-0.417246351,0.242950025,-0.991207257,-0.621963908,0.865954563,7.05E-09,8.83E-07,6.32E-09
0,0,0,0,0,0,4.94E-05,0.002868482,3.13E-07,0.999995885,0.000401098,0.000717998,-7.80E-06,-0.052604748,0.031381778,8.999081398,1,-0.417246441,0.243296997,-0.991207257,-0.622399732,-1.722530312,-4.98E-09,2.18E-05,1.01E-08
0,0,0,0,0,0,4.94E-05,0.002867984,3.13E-07,0.999995886,-1.24E-05,0.000446785,-0.00010855,-0.05900844,-0.005498553,10.25663227,1,-0.417246285,0.242387372,-0.991207257,-0.624385744,0.957975919,8.70E-09,-5.71E-05,1.57E-09
0,0,0,0,0,0,4.94E-05,0.002868017,3.13E-07,0.999995886,-0.00012712,0.001094616,-0.000264133,-0.055714039,-0.008544658,10.19028153,1,-0.417246125,0.242447315,-0.991207256,-0.620697558,0.816510517,8.93E-09,3.76E-06,6.05E-09
0,0,0,0,0,0,4.94E-05,0.002868232,3.13E-07,0.999995885,0.000113079,0.000570171,-5.30E-05,-0.01943372,0.002063526,9.001838529,1,-0.417246225,0.242839616,-0.991207256,-0.623707884,-1.717052383,-5.62E-09,2.46E-05,1.00E-08
0,0,0,0,0,0,4.94E-05,0.00286776,3.13E-07,0.999995887,-5.66E-05,0.000505067,-0.000218151,-0.057430372,-0.013282089,10.25889958,1,-0.417246094,0.241977656,-0.991207256,-0.623875606,0.962804912,7.31E-09,-5.41E-05,1.58E-09
0,0,0,0,0,0,4.94E-05,0.002867817,3.13E-07,0.999995887,0.000210615,0.000708061,8.67E-06,-0.026828304,0.016298732,10.21179179,1,-0.417245961,0.242081897,-0.991207256,-0.622858271,0.862132196,7.47E-09,6.54E-06,6.19E-09
0,0,0,0,0,0,4.94E-05,0.002867773,3.13E-07,0.999995887,8.29E-05,0.000209557,-0.000173666,-0.064876987,0.003460087,9.122343691,1,-0.417246,0.2420022,-0.991207256,-0.625346773,-1.45973659,-2.21E-09,-5.00E-06,8.08E-09
0,0,0,0,0,0,4.94E-05,0.002867615,3.13E-07,0.999995887,-5.55E-05,0.000742261,5.60E-05,-0.052196566,0.018053226,10.35984399,1,-0.41724588,0.24171357,-0.991207256,-0.622816308,1.177930067,6.71E-09,-1.81E-05,3.12E-09
0,0,0,0,0,0,4.94E-05,0.002867848,3.13E-07,0.999995886,1.42E-05,0.000273626,-0.00031049,-0.055768459,-0.005718806,9.247644139,1,-0.417245938,0.242139694,-0.991207255,-0.624636926,-1.192778069,-3.21E-09,2.67E-05,9.47E-09
0,0,0,0,0,0,4.94E-05,0.002867326,3.13E-07,0.999995888,-6.08E-05,0.000728026,-0.000153088,-0.056993378,0.012758809,9.932580615,1,-0.417245825,0.241184575,-0.991207255,-0.622816341,0.267230987,6.26E-09,-5.99E-05,2.43E-09
0,0,0,0,0,0,4.94E-05,0.002867187,3.13E-07,0.999995888,0.000151009,0.001095454,7.18E-05,-0.038893683,-0.025989252,10.25600873,1,-0.417245599,0.240930582,-0.991207255,-0.620834742,0.956509219,1.26E-08,-1.59E-05,5.32E-09
0,0,0,0,0,0,4.94E-05,0.002867443,3.13E-07,0.999995888,-2.93E-05,0.000753054,-0.000100146,-0.038649916,-0.012403191,9.241428706,1,-0.41724564,0.241398267,-0.991207255,-0.622740618,-1.206199028,-2.28E-09,2.93E-05,9.94E-09
0,0,0,0,0,0,4.94E-05,0.002866946,3.14E-07,0.999995889,0.000148144,0.000689587,0.000236223,-0.068082591,0.006736706,9.956812372,1,-0.417245544,0.24049089,-0.991207255,-0.62283058,0.319018218,5.36E-09,-5.69E-05,2.85E-09
0,0,0,0,0,0,4.94E-05,0.002866832,3.14E-07,0.999995889,0.00016142,0.000694472,6.67E-05,-0.060796425,0.01566662,10.21284133,1,-0.417245343,0.240282386,-0.991207255,-0.622982476,0.864677873,1.12E-08,-1.31E-05,5.71E-09
0,0,0,0,0,0,4.94E-05,0.0028669,3.14E-07,0.999995889,0.000119474,0.000352806,-0.000314826,-0.056078341,0.012219394,9.014748455,1,-0.417245358,0.240407084,-0.991207254,-0.62423366,-1.689189453,-8.54E-10,7.82E-06,9.61E-09
0,0,0,0,0,0,4.94E-05,0.002866574,3.14E-07,0.99999589,1.33E-06,0.0006606,0.000113262,-0.066554081,0.029841351,10.45295541,1,-0.417245218,0.239811212,-0.991207254,-0.62323371,1.376634259,7.80E-09,-3.74E-05,2.37E-09
0,0,0,0,0,0,4.94E-05,0.002866777,3.14E-07,0.99999589,-7.53E-05,0.000286708,2.43E-05,-0.041490432,0.000806199,9.520914672,1,-0.417245208,0.240183044,-0.991207254,-0.62527605,-0.610446165,5.48E-10,2.33E-05,8.78E-09
0,0,0,0,0,0,4.94E-05,0.002866449,3.14E-07,0.999995891,0.000392853,0.000392706,-0.000193901,-0.052162066,0.01779964,9.866056002,1,-0.41724517,0.239583769,-0.991207254,-0.623682358,0.12538978,2.13E-09,-3.76E-05,4.09E-09
0,0,0,0,0,0,4.94E-05,0.002866504,3.14E-07,0.99999589,-0.000143534,0.000755939,1.12E-05,-0.030440891,-0.023313448,10.20404418,1,-0.417245086,0.239682646,-0.991207254,-0.622689786,0.845668156,4.68E-09,6.20E-06,6.94E-09
0,0,0,0,0,0,4.94E-05,0.002866455,3.14E-07,0.99999589,-0.000174856,0.000649756,4.74E-07,-0.083899652,0.015107684,9.139532341,1,-0.417245146,0.239593936,-0.991207254,-0.623219288,-1.422743085,-3.35E-09,-5.56E-06,8.77E-09
0,0,0,0,0,0,4.94E-05,0.002866291,3.14E-07,0.999995891,6.90E-05,0.001360754,-0.000365503,-0.041208196,-0.001469645,10.36478925,1,-0.417245035,0.239294654,-0.991207253,-0.619177384,1.188332376,6.22E-09,-1.88E-05,3.78E-09
0,0,0,0,0,0,4.94E-05,0.002866519,3.14E-07,0.99999589,0.000281918,0.00039151,-5.55E-05,-0.054386001,0.011303022,9.264963874,1,-0.417245098,0.239710287,-0.991207253,-0.624245054,-1.155866717,-3.50E-09,2.61E-05,1.01E-08
0,0,0,0,0,0,4.94E-05,0.00286621,3.14E-07,0.999995891,0.000272784,0.000334205,-7.21E-05,-0.062890511,0.008110288,10.17939453,1,-0.417245045,0.239147083,-0.991207253,-0.624509411,0.793392591,2.96E-09,-3.53E-05,3.68E-09
0,0,0,0,0,0,4.94E-05,0.002866429,3.14E-07,0.999995891,8.88E-05,0.000819271,5.86E-05,-0.064434505,-0.006104546,9.850327325,1,-0.417245035,0.239546327,-0.991207253,-0.622379606,0.091987752,5.41E-10,2.50E-05,8.37E-09
0,0,0,0,0,0,4.94E-05,0.002866261,3.14E-07,0.999995891,0.000214977,0.000703085,-0.000185573,-0.049564594,0.016600432,9.522488623,1,-0.417245091,0.239240217,-0.991207253,-0.622751431,-0.606978119,-3.14E-09,-1.92E-05,7.41E-09
0,0,0,0,0,0,4.94E-05,0.002866261,3.14E-07,0.999995891,-0.00010725,0.001062549,1.66E-05,-0.052800934,0.002335563,10.25810261,1,-0.417245023,0.239239939,-0.991207252,-0.621054241,0.961035354,3.82E-09,-1.74E-08,6.17E-09
0,0,0,0,0,0,4.94E-05,0.002866441,3.14E-07,0.999995891,0.000451216,0.000334607,-4.88E-05,-0.049513524,-0.021066155,9.008908978,1,-0.417245136,0.239568126,-0.991207252,-0.623816494,-1.701683754,-6.34E-09,2.06E-05,1.10E-08
0,0,0,0,0,0,4.94E-05,0.002866225,3.14E-07,0.999995891,3.21E-05,0.000908079,-0.000101793,-0.056828989,-0.008814105,10.43483886,1,-0.41724508,0.239173365,-0.991207252,-0.621896517,1.337812521,3.13E-09,-2.48E-05,3.83E-09
0,0,0,0,0,0,4.94E-05,0.002866538,3.15E-07,0.99999589,0.000244968,0.000761663,-1.34E-05,-0.061762189,-0.010041362,9.545667753,1,-0.417245149,0.239746258,-0.991207252,-0.622521758,-0.557438306,-3.81E-09,3.59E-05,1.03E-08
0,0,0,0,0,0,4.94E-05,0.00286632,3.15E-07,0.999995891,0.000143112,0.000596829,0.000225769,-0.048273461,-0.022856868,9.85349316,1,-0.417245186,0.239347893,-0.991207252,-0.623322925,0.098591337,-2.11E-09,-2.50E-05,5.63E-09
0,0,0,0,0,0,4.94E-05,0.002866485,3.15E-07,0.99999589,-0.000125504,0.001194692,8.85E-05,-0.02367641,0.018082267,10.19933221,1,-0.417245178,0.239647888,-0.991207251,-0.620306763,0.835563339,4.81E-10,1.88E-05,8.50E-09
0,0,0,0,0,0,4.94E-05,0.002866546,3.15E-07,0.99999589,-8.96E-05,0.000296421,-0.000129224,-0.0366116,0.004175162,9.146030513,1,-0.417245313,0.239760371,-0.991207251,-0.625067244,-1.409580861,-7.52E-09,7.06E-06,1.03E-08
0,0,0,0,0,0,4.94E-05,0.002866492,3.15E-07,0.99999589,-0.000184576,0.000649705,-0.000148263,-0.068101061,0.012716082,10.35632852,1,-0.417245275,0.239662263,-0.991207251,-0.623117266,1.170616636,2.08E-09,-6.15E-06,5.29E-09
0,0,0,0,0,0,4.94E-05,0.00286683,3.15E-07,0.999995889,-0.000204054,0.000661824,-1.49E-05,-0.067725202,0.006870767,9.258140791,1,-0.417245412,0.240279028,-0.991207251,-0.623110522,-1.170232249,-7.61E-09,3.87E-05,1.15E-08
0,0,0,0,0,0,4.94E-05,0.002866632,3.15E-07,0.99999589,-3.78E-05,0.00025287,5.39E-05,-0.048254656,0.011159652,10.184142,1,-0.417245432,0.239916889,-0.99120725,-0.625474039,0.803347975,-1.12E-09,-2.27E-05,5.09E-09
0,0,0,0,0,0,4.94E-05,0.00286696,3.15E-07,0.999995889,0.000204369,0.001145644,5.03E-05,-0.068735031,0.004454487,9.837307873,1,-0.417245494,0.24051707,-0.99120725,-0.620524283,0.064296349,-3.50E-09,3.76E-05,9.71E-09
0,0,0,0,0,0,4.94E-05,0.002866903,3.15E-07,0.999995889,-5.25E-05,0.000644554,-0.000121888,-0.050261201,0.012769258,9.493372769,1,-0.417245622,0.240411799,-0.99120725,-0.623300365,-0.669045134,-7.14E-09,-6.60E-06,8.69E-09
0,0,0,0,0,0,4.94E-05,0.002867012,3.15E-07,0.999995889,-3.23E-05,0.000988248,2.67E-05,-0.050608967,-0.003392672,10.24881207,1,-0.417245625,0.24061222,-0.99120725,-0.621486698,0.941209027,-1.40E-10,1.26E-05,7.37E-09
0,0,0,0,0,0,4.94E-05,0.002867302,3.15E-07,0.999995888,0.000190261,0.000744798,4.06E-06,-0.04991255,0.009250139,9.011096091,1,-0.417245809,0.241140962,-0.991207249,-0.622694172,-1.697059479,-1.03E-08,3.32E-05,1.22E-08
0,0,0,0,0,0,4.94E-05,0.002867195,3.15E-07,0.999995888,-7.41E-05,0.000645735,0.000276518,-0.067779486,-0.004692753,10.40288002,1,-0.417245822,0.240946636,-0.991207249,-0.623035916,1.269824447,-7.42E-10,-1.22E-05,4.90E-09
0,0,0,0,0,0,4.94E-05,0.002867619,3.15E-07,0.999995887,-0.000103608,0.001068079,-0.000143247,-0.02534091,-0.022354459,9.535205076,1,-0.417245959,0.241719795,-0.991207249,-0.620974621,-0.580049993,-7.64E-09,4.85E-05,1.14E-08
0,0,0,0,0,0,4.94E-05,0.00286751,3.15E-07,0.999995887,0.000537481,0.000605001,0.000237212,-0.056373542,-0.019957936,9.87468443,1,-0.417246065,0.241521589,-0.991207249,-0.62228555,0.143839914,-5.90E-09,-1.24E-05,6.65E-09
0,0,0,0,0,0,4.94E-05,0.002867784,3.15E-07,0.999995887,0.000178428,0.001006074,0.00036528,-0.074707553,0.002215537,10.19142686,1,-0.417246123,0.24202159,-0.991207248,-0.620960961,0.819203788,-3.27E-09,3.14E-05,9.50E-09
0,0,0,0,0,0,4.94E-05,0.002867955,3.16E-07,0.999995886,-0.000222302,0.000826942,-0.000394137,-0.048048162,-0.009892782,9.139756224,1,-0.417246324,0.242333944,-0.991207248,-0.621741347,-1.422832695,-1.12E-08,1.96E-05,1.13E-08
0,0,0,0,0,0,4.94E-05,0.00286801,3.16E-07,0.999995886,0.000107629,0.001020604,-5.62E-06,-0.053706232,-0.016595065,10.3505434,1,-0.417246353,0.242435573,-0.991207248,-0.621283224,1.158116552,-1.59E-09,6.37E-06,6.30E-09
0,0,0,0,0,0,4.94E-05,0.002868457,3.16E-07,0.999995885,0.000346616,0.000733428,-0.00012779,-0.068546381,0.001496831,9.260853002,1,-0.417246554,0.243251913,-0.991207248,-0.622406637,-1.164443374,-1.12E-08,5.12E-05,1.26E-08
0,0,0,0,0,0,4.94E-05,0.002868148,3.16E-07,0.999995886,0.000286596,0.000475153,0.000158614,-0.052661044,0.004139996,9.976878522,1,-0.417246583,0.242686757,-0.991207247,-0.623743855,0.361588128,-1.62E-09,-3.54E-05,5.39E-09
0,0,0,0,0,0,4.94E-05,0.002868222,3.16E-07,0.999995885,0.000347945,0.000658598,0.000391742,-0.039171415,-0.009100201,10.27908465,1,-0.417246496,0.242822796,-0.991207247,-0.622294991,1.00563796,4.84E-09,8.53E-06,8.13E-09
0,0,0,0,0,0,4.94E-05,0.002868692,3.16E-07,0.999995884,0.00025777,0.000529322,-1.82E-05,-0.063830684,0.031342194,9.210381784,1,-0.417246676,0.243680412,-0.991207247,-0.623678604,-1.271983289,-1.00E-08,5.38E-05,1.26E-08
0,0,0,0,0,0,4.94E-05,0.002868409,3.16E-07,0.999995885,0.000215046,0.000928241,0.000221819,-0.077042282,0.002043165,9.935573334,1,-0.417246717,0.243162894,-0.991207247,-0.621546043,0.273881378,-2.31E-09,-3.25E-05,5.31E-09
0,0,0,0,0,0,4.94E-05,0.002868508,3.16E-07,0.999995885,7.01E-05,0.00054174,-0.00022881,-0.032862966,0.004403526,10.22498699,1,-0.417246652,0.243344058,-0.991207246,-0.623661001,0.890270725,3.63E-09,1.14E-05,8.00E-09
0,0,0,0,0,0,4.94E-05,0.002868789,3.16E-07,0.999995884,0.00023671,0.0006128,0.00029777,-0.060859722,0.032827778,8.984508831,1,-0.417246802,0.243858172,-0.991207246,-0.622954184,-1.75347024,-8.38E-09,3.22E-05,1.18E-08
0,0,0,0,0,0,4.94E-05,0.002868383,3.16E-07,0.999995885,0.000166584,0.000653763,-1.67E-05,-0.052450977,0.000405404,10.26965421,1,-0.417246707,0.243115677,-0.991207246,-0.623208408,0.985653949,5.32E-09,-4.66E-05,3.14E-09
0,0,0,0,0,0,4.94E-05,0.002868507,3.16E-07,0.999995885,4.09E-05,0.001059222,-8.68E-07,-0.060365341,0.01071046,10.19184256,1,-0.417246607,0.243342694,-0.991207246,-0.621098428,0.819898763,5.58E-09,1.42E-05,7.53E-09
0,0,0,0,0,0,4.94E-05,0.002868813,3.16E-07,0.999995884,-7.38E-05,0.000620348,-6.52E-05,-0.047691259,0.019514966,9.006884355,1,-0.417246767,0.243901975,-0.991207246,-0.623464487,-1.706027756,-8.95E-09,3.51E-05,1.14E-08
0,0,0,0,0,0,4.94E-05,0.002868433,3.16E-07,0.999995885,-2.02E-05,0.000458099,-0.000125496,-0.044493794,-0.014914645,10.24485369,1,-0.417246696,0.243206937,-0.991207245,-0.624301061,0.932732914,4.01E-09,-4.36E-05,2.79E-09
0,0,0,0,0,0,4.94E-05,0.002868581,3.16E-07,0.999995884,0.000244756,0.000865137,0.000200152,-0.087096891,-0.016624713,10.1740651,1,-0.41724662,0.243477972,-0.991207245,-0.621859416,0.78243502,4.20E-09,1.70E-05,7.26E-09
0,0,0,0,0,0,4.94E-05,0.002868626,3.17E-07,0.999995884,-0.000143614,0.000481015,-0.000136586,-0.022447457,0.000356926,8.805921472,1,-0.417246719,0.243559898,-0.991207245,-0.624055422,-2.134651871,-5.49E-09,5.14E-06,1.00E-08
0,0,0,0,0,0,4.94E-05,0.002868196,3.17E-07,0.999995886,7.01E-05,0.000660135,8.75E-05,-0.066889421,-0.011147171,10.52163579,1,-0.417246526,0.24277385,-0.991207245,-0.623237301,1.522956186,1.07E-08,-4.93E-05,1.20E-09
0,0,0,0,0,0,4.94E-05,0.002868369,3.17E-07,0.999995885,-0.000300689,0.000546362,4.51E-06,-0.042408175,-0.019888011,10.13244745,1,-0.41724643,0.24309034,-0.991207245,-0.623488919,0.693130343,5.35E-09,1.99E-05,7.10E-09
0,0,0,0,0,0,4.94E-05,0.002868439,3.17E-07,0.999995885,-2.34E-05,0.000398034,0.000222578,-0.037426805,0.018639664,8.78699477,1,-0.417246544,0.243218205,-0.991207244,-0.624403883,-2.174844841,-6.35E-09,8.02E-06,9.95E-09
0,0,0,0,0,0,4.94E-05,0.002868034,3.17E-07,0.999995886,5.09E-05,0.000367723,0.00013302,-0.058538827,-0.005717581,10.5141946,1,-0.417246377,0.242479274,-0.991207244,-0.624745167,1.506979484,9.32E-09,-4.63E-05,1.26E-09
0,0,0,0,0,0,4.94E-05,0.002868232,3.17E-07,0.999995885,-0.000404031,0.000789452,0.000228186,-0.072089324,-0.029224747,9.817460172,1,-0.417246307,0.24283944,-0.991207244,-0.621888899,0.022132025,3.93E-09,2.26E-05,7.29E-09
0,0,0,0,0,0,4.94E-05,0.00286797,3.17E-07,0.999995886,-0.00014464,0.00042775,0.00024065,-0.042072857,-0.012258917,9.260805209,1,-0.41724632,0.242361064,-0.991207244,-0.624102421,-1.164865231,-7.21E-10,-3.00E-05,7.51E-09
0,0,0,0,0,0,4.94E-05,0.002867587,3.17E-07,0.999995887,-2.21E-05,0.00085229,0.000102643,-0.030871245,0.017057687,10.38383248,1,-0.41724606,0.241661236,-0.991207244,-0.622201082,1.228877628,1.45E-08,-4.39E-05,1.56E-09
0,0,0,0,0,0,4.94E-05,0.002867808,3.17E-07,0.999995887,7.68E-05,0.000713189,-3.38E-05,-0.039939076,-0.018489665,9.772636113,1,-0.417245981,0.242066602,-0.991207244,-0.622971484,-0.073860232,4.38E-09,2.54E-05,7.49E-09
0,0,0,0,0,0,4.94E-05,0.002867572,3.17E-07,0.999995887,1.90E-06,0.000417791,0.000310293,-0.020156118,-0.011028396,9.230292185,1,-0.417246014,0.241635451,-0.991207244,-0.624054483,-1.230066613,-1.84E-09,-2.70E-05,7.74E-09
0,0,0,0,0,0,4.94E-05,0.002867215,3.17E-07,0.999995888,0.000309632,0.000605912,0.000114169,-0.040546694,0.007371956,10.3943812,1,-0.417245782,0.240982231,-0.991207243,-0.623125716,1.25140965,1.30E-08,-4.10E-05,1.84E-09
0,0,0,0,0,0,4.94E-05,0.002867392,3.17E-07,0.999995888,0.000208253,0.000781116,-0.00024366,-0.038461875,0.028741917,9.510338797,1,-0.417245723,0.241305224,-0.991207243,-0.622280029,-0.632924034,3.30E-09,2.03E-05,8.17E-09
0,0,0,0,0,0,4.94E-05,0.002867039,3.17E-07,0.999995889,0.000354904,0.000454363,-7.51E-05,-0.055529611,-0.015502127,9.888251505,1,-0.417245654,0.240660422,-0.991207243,-0.623720305,0.172731647,3.82E-09,-4.04E-05,3.49E-09
0,0,0,0,0,0,4.94E-05,0.002867068,3.17E-07,0.999995889,-8.92E-05,0.000742977,2.51E-05,-0.063185847,0.004004586,10.1700295,1,-0.417245548,0.240714533,-0.991207243,-0.622803727,0.773429237,5.95E-09,3.39E-06,6.39E-09
0,0,0,0,0,0,4.94E-05,0.002866995,3.17E-07,0.999995889,0.000192479,0.000797344,-2.25E-05,-0.086445604,-0.04458882,9.135886538,1,-0.417245588,0.240581087,-0.991207243,-0.62241023,-1.430258216,-2.22E-09,-8.37E-06,8.25E-09
0,0,0,0,0,0,4.94E-05,0.002866807,3.17E-07,0.999995889,8.27E-05,0.000938468,0.000192155,-0.060027096,0.006313707,10.36492246,1,-0.417245457,0.24023706,-0.991207243,-0.621638109,1.188816101,7.30E-09,-2.16E-05,3.32E-09
0,0,0,0,0,0,4.94E-05,0.00286701,3.17E-07,0.999995889,7.04E-05,0.000632885,0.000108823,-0.046786818,-0.011147852,9.277225965,1,-0.4172455,0.240607756,-0.991207242,-0.623366398,-1.129818133,-2.42E-09,2.33E-05,9.65E-09
0,0,0,0,0,0,4.94E-05,0.002866677,3.17E-07,0.99999589,0.000324284,0.000594494,-0.000336593,-0.041374854,0.008958467,10.18545104,1,-0.417245428,0.239999573,-0.991207242,-0.622762653,0.806069135,4.03E-09,-3.81E-05,3.34E-09
0,0,0,0,0,0,4.94E-05,0.002866871,3.18E-07,0.999995889,0.000139233,0.000607117,-0.000211711,-0.049921785,0.056279502,9.843855135,1,-0.417245399,0.240353763,-0.991207242,-0.623301452,0.078351187,1.62E-09,2.22E-05,8.08E-09
0,0,0,0,0,0,4.94E-05,0.002866679,3.18E-07,0.99999589,1.79E-05,0.000313742,0.000292932,-0.055977621,-0.019478868,9.529561139,1,-0.417245436,0.240002579,-0.991207242,-0.624551959,-0.591815314,-2.07E-09,-2.20E-05,7.19E-09
0,0,0,0,0,0,4.94E-05,0.002866654,3.18E-07,0.99999589,0.00010394,0.000854007,3.47E-05,-0.042141323,0.027675493,10.28646934,1,-0.417245349,0.239957229,-0.991207242,-0.622188622,1.021474789,4.89E-09,-2.84E-06,6.00E-09
0,0,0,0,0,0,4.94E-05,0.002866809,3.18E-07,0.999995889,-3.24E-05,0.000373666,-0.000109192,-0.073608717,0.003048355,9.03638887,1,-0.417245443,0.240240357,-0.991207241,-0.624765443,-1.642810223,-5.28E-09,1.78E-05,1.09E-08
0,0,0,0,0,0,4.94E-05,0.002866568,3.18E-07,0.99999589,4.87E-05,0.000647747,5.33E-05,-0.085005169,-0.011288867,10.44889832,1,-0.417245368,0.239800557,-0.991207241,-0.623334963,1.368193808,4.19E-09,-2.76E-05,3.72E-09
0,0,0,0,0,0,4.94E-05,0.002866857,3.18E-07,0.999995889,-1.57E-05,0.00052071,0.000281455,-0.03149623,-0.018269916,9.535278104,1,-0.417245418,0.240328446,-0.991207241,-0.623661693,-0.57987377,-2.76E-09,3.31E-05,1.02E-08
0,0,0,0,0,0,4.94E-05,0.002866614,3.18E-07,0.99999589,4.93E-05,0.000536003,0.000104768,-0.070847327,0.012383175,9.867558136,1,-0.417245437,0.239885098,-0.991207241,-0.623901392,0.12882226,-1.08E-09,-2.78E-05,5.54E-09
0,0,0,0,0,0,4.94E-05,0.002866754,3.18E-07,0.99999589,0.000267308,0.000762531,8.97E-05,-0.05596378,0.015213402,10.20153216,1,-0.41724541,0.240140146,-0.991207241,-0.622451682,0.840511368,1.51E-09,1.60E-05,8.40E-09
0,0,0,0,0,0,4.94E-05,0.002866791,3.18E-07,0.99999589,0.000141583,0.000373868,1.98E-05,-0.040808434,0.019957843,9.114612827,1,-0.417245527,0.240207713,-0.99120724,-0.624712695,-1.476467481,-6.50E-09,4.24E-06,1.02E-08
0,0,0,0,0,0,4.94E-05,0.002866713,3.18E-07,0.99999589,7.16E-05,0.000687392,0.000154131,-0.062784099,-0.007752727,10.32966692,1,-0.417245471,0.24006472,-0.99120724,-0.623026344,1.113703962,3.08E-09,-8.97E-06,5.15E-09
